"rt","response","trial_type","trial_index","plugin_version","time_elapsed","stimulus","nt","stim","resp","slider_start"
"8544","{}","survey-html-form","0","2.0.0","8548","","","","",""
"null","null","html-keyboard-response","1","2.0.0","11751","<div id=""dot-container"" style=""position: relative; width: 40vw; height: 70vh;""></div>","1","[""I_am_angry_M_A.txt"",""I_am_angry_M_B.txt""]","[""imitate me"",""I am angry""]",""
"2681","96","html-slider-response","2","2.0.0","14435","<p style=""text-align: center;"">Indicate your response!</p>","","","","50"
"null","null","html-keyboard-response","3","2.0.0","17638","<div id=""dot-container"" style=""position: relative; width: 40vw; height: 70vh;""></div>","2","[""come_closer_M_A.txt"",""come_closer_M_B.txt""]","[""which one?"",""come closer""]",""
"2121","93","html-slider-response","4","2.0.0","19761","<p style=""text-align: center;"">Indicate your response!</p>","","","","50"
"null","null","html-keyboard-response","5","2.0.0","22963","<div id=""dot-container"" style=""position: relative; width: 40vw; height: 70vh;""></div>","3","[""move_over_M_A.txt"",""move_over_M_B.txt""]","[""move over"",""give me""]",""
"2495","29","html-slider-response","6","2.0.0","25460","<p style=""text-align: center;"">Indicate your response!</p>","","","","50"
"null","null","html-keyboard-response","7","2.0.0","28663","<div id=""dot-container"" style=""position: relative; width: 40vw; height: 70vh;""></div>","4","[""no_M_A.txt"",""no_M_B.txt""]","[""no"",""imitate me""]",""
"2200","9","html-slider-response","8","2.0.0","30866","<p style=""text-align: center;"">Indicate your response!</p>","","","","50"
"null","null","html-keyboard-response","9","2.0.0","34067","<div id=""dot-container"" style=""position: relative; width: 40vw; height: 70vh;""></div>","5","[""which_one_M_A.txt"",""which_one_M_B.txt""]","[""sit down"",""which one?""]",""
"2292","87","html-slider-response","10","2.0.0","36361","<p style=""text-align: center;"">Indicate your response!</p>","","","","50"
"null","null","html-keyboard-response","11","2.0.0","39563","<div id=""dot-container"" style=""position: relative; width: 40vw; height: 70vh;""></div>","6","[""go_overthere_M_A.txt"",""go_overthere_M_B.txt""]","[""come closer"",""go over there""]",""
"2112","88","html-slider-response","12","2.0.0","41677","<p style=""text-align: center;"">Indicate your response!</p>","","","","50"
"null","null","html-keyboard-response","13","2.0.0","44881","<div id=""dot-container"" style=""position: relative; width: 40vw; height: 70vh;""></div>","7","[""help_yourself_M_A.txt"",""help_yourself_M_B.txt""]","[""I am happy"",""help yourself""]",""
"2301","99","html-slider-response","14","2.0.0","47184","<p style=""text-align: center;"">Indicate your response!</p>","","","","50"
"null","null","html-keyboard-response","15","2.0.0","50385","<div id=""dot-container"" style=""position: relative; width: 40vw; height: 70vh;""></div>","8","[""give_me_M_A.txt"",""give_me_M_B.txt""]","[""give me"",""imitate me""]",""
"3481","2","html-slider-response","16","2.0.0","53868","<p style=""text-align: center;"">Indicate your response!</p>","","","","50"
"1355","{}","survey-html-form","17","2.0.0","55225","","","","",""
"null","null","html-keyboard-response","18","2.0.0","58427","<div id=""dot-container"" style=""position: relative; width: 40vw; height: 70vh;""></div>","9","[""give_me_M_A.txt"",""give_me_M_B.txt""]","[""I am happy"",""give me""]",""
"2190","96","html-slider-response","19","2.0.0","60618","<p style=""text-align: center;"">Indicate your response!</p>","","","","50"
"null","null","html-keyboard-response","20","2.0.0","63821","<div id=""dot-container"" style=""position: relative; width: 40vw; height: 70vh;""></div>","10","[""this_tall_M_A.txt"",""this_tall_M_B.txt""]","[""I am happy"",""this tall""]",""
"2186","95","html-slider-response","21","2.0.0","66010","<p style=""text-align: center;"">Indicate your response!</p>","","","","50"
"null","null","html-keyboard-response","22","2.0.0","69212","<div id=""dot-container"" style=""position: relative; width: 40vw; height: 70vh;""></div>","11","[""move_it_M_A.txt"",""move_it_M_B.txt""]","[""come closer"",""move it""]",""
"2113","95","html-slider-response","23","2.0.0","71326","<p style=""text-align: center;"">Indicate your response!</p>","","","","50"
"null","null","html-keyboard-response","24","2.0.0","74529","<div id=""dot-container"" style=""position: relative; width: 40vw; height: 70vh;""></div>","12","[""this_tall_M_A.txt"",""this_tall_M_B.txt""]","[""help yourself"",""this tall""]",""
"2024","94","html-slider-response","25","2.0.0","76554","<p style=""text-align: center;"">Indicate your response!</p>","","","","50"
"null","null","html-keyboard-response","26","2.0.0","79756","<div id=""dot-container"" style=""position: relative; width: 40vw; height: 70vh;""></div>","13","[""come_closer_M_A.txt"",""come_closer_M_B.txt""]","[""come closer"",""I am angry""]",""
"2806","3","html-slider-response","27","2.0.0","82563","<p style=""text-align: center;"">Indicate your response!</p>","","","","50"
"null","null","html-keyboard-response","28","2.0.0","85767","<div id=""dot-container"" style=""position: relative; width: 40vw; height: 70vh;""></div>","14","[""which_one_M_A.txt"",""which_one_M_B.txt""]","[""which one?"",""no""]",""
"2606","4","html-slider-response","29","2.0.0","88375","<p style=""text-align: center;"">Indicate your response!</p>","","","","50"
"null","null","html-keyboard-response","30","2.0.0","91579","<div id=""dot-container"" style=""position: relative; width: 40vw; height: 70vh;""></div>","15","[""I_am_happy_M_A.txt"",""I_am_happy_M_B.txt""]","[""I am happy"",""pick up""]",""
"2292","6","html-slider-response","31","2.0.0","93872","<p style=""text-align: center;"">Indicate your response!</p>","","","","50"
"1193","{}","survey-html-form","32","2.0.0","95066","","","","",""
"null","null","html-keyboard-response","33","2.0.0","98268","<div id=""dot-container"" style=""position: relative; width: 40vw; height: 70vh;""></div>","16","[""move_over_M_A.txt"",""move_over_M_B.txt""]","[""move over"",""move it""]",""
"2105","9","html-slider-response","34","2.0.0","100375","<p style=""text-align: center;"">Indicate your response!</p>","","","","50"
"null","null","html-keyboard-response","35","2.0.0","103577","<div id=""dot-container"" style=""position: relative; width: 40vw; height: 70vh;""></div>","17","[""look_floor_M_A.txt"",""look_floor_M_B.txt""]","[""imitate me"",""look at<br>the floor""]",""
"2024","89","html-slider-response","36","2.0.0","105602","<p style=""text-align: center;"">Indicate your response!</p>","","","","50"
"null","null","html-keyboard-response","37","2.0.0","108805","<div id=""dot-container"" style=""position: relative; width: 40vw; height: 70vh;""></div>","18","[""I_am_angry_M_A.txt"",""I_am_angry_M_B.txt""]","[""pick up"",""I am angry""]",""
"2479","90","html-slider-response","38","2.0.0","111285","<p style=""text-align: center;"">Indicate your response!</p>","","","","50"
"null","null","html-keyboard-response","39","2.0.0","114487","<div id=""dot-container"" style=""position: relative; width: 40vw; height: 70vh;""></div>","19","[""look_floor_M_A.txt"",""look_floor_M_B.txt""]","[""look at<br>the floor"",""sit down""]",""
"2773","92","html-slider-response","40","2.0.0","117262","<p style=""text-align: center;"">Indicate your response!</p>","","","","50"
"null","null","html-keyboard-response","41","2.0.0","120464","<div id=""dot-container"" style=""position: relative; width: 40vw; height: 70vh;""></div>","20","[""move_over_M_A.txt"",""move_over_M_B.txt""]","[""I am angry"",""move over""]",""
"3064","92","html-slider-response","42","2.0.0","123529","<p style=""text-align: center;"">Indicate your response!</p>","","","","50"
"null","null","html-keyboard-response","43","2.0.0","126731","<div id=""dot-container"" style=""position: relative; width: 40vw; height: 70vh;""></div>","21","[""no_M_A.txt"",""no_M_B.txt""]","[""move over"",""no""]",""
"2132","95","html-slider-response","44","2.0.0","128865","<p style=""text-align: center;"">Indicate your response!</p>","","","","50"
"null","null","html-keyboard-response","45","2.0.0","132068","<div id=""dot-container"" style=""position: relative; width: 40vw; height: 70vh;""></div>","22","[""which_one_M_A.txt"",""which_one_M_B.txt""]","[""which one?"",""move over""]",""
"2187","4","html-slider-response","46","2.0.0","134257","<p style=""text-align: center;"">Indicate your response!</p>","","","","50"
"1201","{}","survey-html-form","47","2.0.0","135459","","","","",""
"null","null","html-keyboard-response","48","2.0.0","138662","<div id=""dot-container"" style=""position: relative; width: 40vw; height: 70vh;""></div>","23","[""sit_down_M_A.txt"",""sit_down_M_B.txt""]","[""move it"",""sit down""]",""
"1999","97","html-slider-response","49","2.0.0","140663","<p style=""text-align: center;"">Indicate your response!</p>","","","","50"
"null","null","html-keyboard-response","50","2.0.0","143864","<div id=""dot-container"" style=""position: relative; width: 40vw; height: 70vh;""></div>","24","[""sit_down_M_A.txt"",""sit_down_M_B.txt""]","[""imitate me"",""sit down""]",""
"2097","97","html-slider-response","51","2.0.0","145963","<p style=""text-align: center;"">Indicate your response!</p>","","","","50"
"null","null","html-keyboard-response","52","2.0.0","149165","<div id=""dot-container"" style=""position: relative; width: 40vw; height: 70vh;""></div>","25","[""no_M_A.txt"",""no_M_B.txt""]","[""no"",""I am angry""]",""
"1961","0","html-slider-response","53","2.0.0","151128","<p style=""text-align: center;"">Indicate your response!</p>","","","","50"
"null","null","html-keyboard-response","54","2.0.0","154330","<div id=""dot-container"" style=""position: relative; width: 40vw; height: 70vh;""></div>","26","[""move_it_M_A.txt"",""move_it_M_B.txt""]","[""I am happy"",""move it""]",""
"2543","97","html-slider-response","55","2.0.0","156875","<p style=""text-align: center;"">Indicate your response!</p>","","","","50"
"null","null","html-keyboard-response","56","2.0.0","160077","<div id=""dot-container"" style=""position: relative; width: 40vw; height: 70vh;""></div>","27","[""look_floor_M_A.txt"",""look_floor_M_B.txt""]","[""go over there"",""look at<br>the floor""]",""
"2593","95","html-slider-response","57","2.0.0","162671","<p style=""text-align: center;"">Indicate your response!</p>","","","","50"
"null","null","html-keyboard-response","58","2.0.0","165873","<div id=""dot-container"" style=""position: relative; width: 40vw; height: 70vh;""></div>","28","[""go_overthere_M_A.txt"",""go_overthere_M_B.txt""]","[""no"",""go over there""]",""
"2041","88","html-slider-response","59","2.0.0","167916","<p style=""text-align: center;"">Indicate your response!</p>","","","","50"
"null","null","html-keyboard-response","60","2.0.0","171117","<div id=""dot-container"" style=""position: relative; width: 40vw; height: 70vh;""></div>","29","[""I_am_angry_M_A.txt"",""I_am_angry_M_B.txt""]","[""move it"",""I am angry""]",""
"2089","95","html-slider-response","61","2.0.0","173208","<p style=""text-align: center;"">Indicate your response!</p>","","","","50"
"1096","{}","survey-html-form","62","2.0.0","174305","","","","",""
"null","null","html-keyboard-response","63","2.0.0","177508","<div id=""dot-container"" style=""position: relative; width: 40vw; height: 70vh;""></div>","30","[""sit_down_M_A.txt"",""sit_down_M_B.txt""]","[""sit down"",""look at<br>the ceiling""]",""
"2404","1","html-slider-response","64","2.0.0","179914","<p style=""text-align: center;"">Indicate your response!</p>","","","","50"
"null","null","html-keyboard-response","65","2.0.0","183117","<div id=""dot-container"" style=""position: relative; width: 40vw; height: 70vh;""></div>","31","[""look_floor_M_A.txt"",""look_floor_M_B.txt""]","[""no"",""look at<br>the floor""]",""
"2478","93","html-slider-response","66","2.0.0","185597","<p style=""text-align: center;"">Indicate your response!</p>","","","","50"
"null","null","html-keyboard-response","67","2.0.0","188799","<div id=""dot-container"" style=""position: relative; width: 40vw; height: 70vh;""></div>","32","[""move_it_M_A.txt"",""move_it_M_B.txt""]","[""imitate me"",""move it""]",""
"3495","90","html-slider-response","68","2.0.0","192296","<p style=""text-align: center;"">Indicate your response!</p>","","","","50"
"null","null","html-keyboard-response","69","2.0.0","195497","<div id=""dot-container"" style=""position: relative; width: 40vw; height: 70vh;""></div>","33","[""come_closer_M_A.txt"",""come_closer_M_B.txt""]","[""imitate me"",""come closer""]",""
"2220","90","html-slider-response","70","2.0.0","197718","<p style=""text-align: center;"">Indicate your response!</p>","","","","50"
"null","null","html-keyboard-response","71","2.0.0","200921","<div id=""dot-container"" style=""position: relative; width: 40vw; height: 70vh;""></div>","34","[""put_down_M_A.txt"",""put_down_M_B.txt""]","[""I am angry"",""put down""]",""
"2291","93","html-slider-response","72","2.0.0","203214","<p style=""text-align: center;"">Indicate your response!</p>","","","","50"
"null","null","html-keyboard-response","73","2.0.0","206416","<div id=""dot-container"" style=""position: relative; width: 40vw; height: 70vh;""></div>","35","[""look_ceiling_M_A.txt"",""look_ceiling_M_B.txt""]","[""pick up"",""look at<br>the ceiling""]",""
"2504","99","html-slider-response","74","2.0.0","208922","<p style=""text-align: center;"">Indicate your response!</p>","","","","50"
"null","null","html-keyboard-response","75","2.0.0","212123","<div id=""dot-container"" style=""position: relative; width: 40vw; height: 70vh;""></div>","36","[""no_M_A.txt"",""no_M_B.txt""]","[""no"",""move it""]",""
"2041","2","html-slider-response","76","2.0.0","214165","<p style=""text-align: center;"">Indicate your response!</p>","","","","50"
"1136","{}","survey-html-form","77","2.0.0","215303","","","","",""
"null","null","html-keyboard-response","78","2.0.0","218505","<div id=""dot-container"" style=""position: relative; width: 40vw; height: 70vh;""></div>","37","[""this_tall_M_A.txt"",""this_tall_M_B.txt""]","[""this tall"",""no""]",""
"2900","1","html-slider-response","79","2.0.0","221407","<p style=""text-align: center;"">Indicate your response!</p>","","","","50"
"null","null","html-keyboard-response","80","2.0.0","224610","<div id=""dot-container"" style=""position: relative; width: 40vw; height: 70vh;""></div>","38","[""move_over_M_A.txt"",""move_over_M_B.txt""]","[""imitate me"",""move over""]",""
"2291","90","html-slider-response","81","2.0.0","226903","<p style=""text-align: center;"">Indicate your response!</p>","","","","50"
"null","null","html-keyboard-response","82","2.0.0","230105","<div id=""dot-container"" style=""position: relative; width: 40vw; height: 70vh;""></div>","39","[""move_it_M_A.txt"",""move_it_M_B.txt""]","[""look at<br>the floor"",""move it""]",""
"3035","89","html-slider-response","83","2.0.0","233142","<p style=""text-align: center;"">Indicate your response!</p>","","","","50"
"null","null","html-keyboard-response","84","2.0.0","236344","<div id=""dot-container"" style=""position: relative; width: 40vw; height: 70vh;""></div>","40","[""give_me_M_A.txt"",""give_me_M_B.txt""]","[""give me"",""I am angry""]",""
"2041","1","html-slider-response","85","2.0.0","238387","<p style=""text-align: center;"">Indicate your response!</p>","","","","50"
"null","null","html-keyboard-response","86","2.0.0","241589","<div id=""dot-container"" style=""position: relative; width: 40vw; height: 70vh;""></div>","41","[""I_am_happy_M_A.txt"",""I_am_happy_M_B.txt""]","[""I am happy"",""look at<br>the floor""]",""
"2577","1","html-slider-response","87","2.0.0","244167","<p style=""text-align: center;"">Indicate your response!</p>","","","","50"
"null","null","html-keyboard-response","88","2.0.0","247370","<div id=""dot-container"" style=""position: relative; width: 40vw; height: 70vh;""></div>","42","[""move_over_M_A.txt"",""move_over_M_B.txt""]","[""move over"",""put down""]",""
"3120","6","html-slider-response","89","2.0.0","250492","<p style=""text-align: center;"">Indicate your response!</p>","","","","50"
"null","null","html-keyboard-response","90","2.0.0","253693","<div id=""dot-container"" style=""position: relative; width: 40vw; height: 70vh;""></div>","43","[""go_overthere_M_A.txt"",""go_overthere_M_B.txt""]","[""which one?"",""go over there""]",""
"1937","90","html-slider-response","91","2.0.0","255631","<p style=""text-align: center;"">Indicate your response!</p>","","","","50"
"1453","{}","survey-html-form","92","2.0.0","257086","","","","",""
"null","null","html-keyboard-response","93","2.0.0","260288","<div id=""dot-container"" style=""position: relative; width: 40vw; height: 70vh;""></div>","44","[""which_one_M_A.txt"",""which_one_M_B.txt""]","[""move it"",""which one?""]",""
"2869","99","html-slider-response","94","2.0.0","263159","<p style=""text-align: center;"">Indicate your response!</p>","","","","50"
"null","null","html-keyboard-response","95","2.0.0","266361","<div id=""dot-container"" style=""position: relative; width: 40vw; height: 70vh;""></div>","45","[""give_me_M_A.txt"",""give_me_M_B.txt""]","[""give me"",""come closer""]",""
"2694","0","html-slider-response","96","2.0.0","269056","<p style=""text-align: center;"">Indicate your response!</p>","","","","50"
"null","null","html-keyboard-response","97","2.0.0","272259","<div id=""dot-container"" style=""position: relative; width: 40vw; height: 70vh;""></div>","46","[""go_overthere_M_A.txt"",""go_overthere_M_B.txt""]","[""give me"",""go over there""]",""
"2119","99","html-slider-response","98","2.0.0","274380","<p style=""text-align: center;"">Indicate your response!</p>","","","","50"
"null","null","html-keyboard-response","99","2.0.0","277582","<div id=""dot-container"" style=""position: relative; width: 40vw; height: 70vh;""></div>","47","[""I_am_angry_M_A.txt"",""I_am_angry_M_B.txt""]","[""I am angry"",""which one?""]",""
"2446","3","html-slider-response","100","2.0.0","280030","<p style=""text-align: center;"">Indicate your response!</p>","","","","50"
"null","null","html-keyboard-response","101","2.0.0","283232","<div id=""dot-container"" style=""position: relative; width: 40vw; height: 70vh;""></div>","48","[""imitate_me_M_A.txt"",""imitate_me_M_B.txt""]","[""look at<br>the ceiling"",""imitate me""]",""
"2665","96","html-slider-response","102","2.0.0","285899","<p style=""text-align: center;"">Indicate your response!</p>","","","","50"
"null","null","html-keyboard-response","103","2.0.0","289101","<div id=""dot-container"" style=""position: relative; width: 40vw; height: 70vh;""></div>","49","[""imitate_me_M_A.txt"",""imitate_me_M_B.txt""]","[""give me"",""imitate me""]",""
"2211","99","html-slider-response","104","2.0.0","291313","<p style=""text-align: center;"">Indicate your response!</p>","","","","50"
"null","null","html-keyboard-response","105","2.0.0","294516","<div id=""dot-container"" style=""position: relative; width: 40vw; height: 70vh;""></div>","50","[""come_closer_M_A.txt"",""come_closer_M_B.txt""]","[""I am happy"",""come closer""]",""
"2413","96","html-slider-response","106","2.0.0","296931","<p style=""text-align: center;"">Indicate your response!</p>","","","","50"
"1112","{}","survey-html-form","107","2.0.0","298045","","","","",""
"null","null","html-keyboard-response","108","2.0.0","301247","<div id=""dot-container"" style=""position: relative; width: 40vw; height: 70vh;""></div>","51","[""help_yourself_M_A.txt"",""help_yourself_M_B.txt""]","[""help yourself"",""come closer""]",""
"2747","95","html-slider-response","109","2.0.0","303996","<p style=""text-align: center;"">Indicate your response!</p>","","","","50"
"null","null","html-keyboard-response","110","2.0.0","307197","<div id=""dot-container"" style=""position: relative; width: 40vw; height: 70vh;""></div>","52","[""come_closer_M_A.txt"",""come_closer_M_B.txt""]","[""sit down"",""come closer""]",""
"25877","56","html-slider-response","111","2.0.0","333075","<p style=""text-align: center;"">Indicate your response!</p>","","","","50"
"null","null","html-keyboard-response","112","2.0.0","336276","<div id=""dot-container"" style=""position: relative; width: 40vw; height: 70vh;""></div>","53","[""imitate_me_M_A.txt"",""imitate_me_M_B.txt""]","[""which one?"",""imitate me""]",""
"1979","97","html-slider-response","113","2.0.0","338257","<p style=""text-align: center;"">Indicate your response!</p>","","","","50"
"null","null","html-keyboard-response","114","2.0.0","341458","<div id=""dot-container"" style=""position: relative; width: 40vw; height: 70vh;""></div>","54","[""help_yourself_M_A.txt"",""help_yourself_M_B.txt""]","[""help yourself"",""move over""]",""
"3057","0","html-slider-response","115","2.0.0","344517","<p style=""text-align: center;"">Indicate your response!</p>","","","","50"
"null","null","html-keyboard-response","116","2.0.0","347718","<div id=""dot-container"" style=""position: relative; width: 40vw; height: 70vh;""></div>","55","[""put_down_M_A.txt"",""put_down_M_B.txt""]","[""put down"",""move it""]",""
"2869","94","html-slider-response","117","2.0.0","350589","<p style=""text-align: center;"">Indicate your response!</p>","","","","50"
"null","null","html-keyboard-response","118","2.0.0","353791","<div id=""dot-container"" style=""position: relative; width: 40vw; height: 70vh;""></div>","56","[""look_ceiling_M_A.txt"",""look_ceiling_M_B.txt""]","[""move over"",""look at<br>the ceiling""]",""
"12494","1","html-slider-response","119","2.0.0","366286","<p style=""text-align: center;"">Indicate your response!</p>","","","","50"
"null","null","html-keyboard-response","120","2.0.0","369487","<div id=""dot-container"" style=""position: relative; width: 40vw; height: 70vh;""></div>","57","[""imitate_me_M_A.txt"",""imitate_me_M_B.txt""]","[""I am happy"",""imitate me""]",""
"2342","97","html-slider-response","121","2.0.0","371831","<p style=""text-align: center;"">Indicate your response!</p>","","","","50"
"1194","{}","survey-html-form","122","2.0.0","373026","","","","",""
"null","null","html-keyboard-response","123","2.0.0","376229","<div id=""dot-container"" style=""position: relative; width: 40vw; height: 70vh;""></div>","58","[""put_down_M_A.txt"",""put_down_M_B.txt""]","[""put down"",""move over""]",""
"4510","4","html-slider-response","124","2.0.0","380740","<p style=""text-align: center;"">Indicate your response!</p>","","","","50"
"null","null","html-keyboard-response","125","2.0.0","383943","<div id=""dot-container"" style=""position: relative; width: 40vw; height: 70vh;""></div>","59","[""sit_down_M_A.txt"",""sit_down_M_B.txt""]","[""sit down"",""which one?""]",""
"2227","1","html-slider-response","126","2.0.0","386172","<p style=""text-align: center;"">Indicate your response!</p>","","","","50"
"null","null","html-keyboard-response","127","2.0.0","389373","<div id=""dot-container"" style=""position: relative; width: 40vw; height: 70vh;""></div>","60","[""no_M_A.txt"",""no_M_B.txt""]","[""look at<br>the floor"",""no""]",""
"3826","1","html-slider-response","128","2.0.0","393201","<p style=""text-align: center;"">Indicate your response!</p>","","","","50"
"null","null","html-keyboard-response","129","2.0.0","396403","<div id=""dot-container"" style=""position: relative; width: 40vw; height: 70vh;""></div>","61","[""put_down_M_A.txt"",""put_down_M_B.txt""]","[""put down"",""I am happy""]",""
"3407","2","html-slider-response","130","2.0.0","399811","<p style=""text-align: center;"">Indicate your response!</p>","","","","50"
"null","null","html-keyboard-response","131","2.0.0","403014","<div id=""dot-container"" style=""position: relative; width: 40vw; height: 70vh;""></div>","62","[""this_tall_M_A.txt"",""this_tall_M_B.txt""]","[""this tall"",""go over there""]",""
"3217","1","html-slider-response","132","2.0.0","406234","<p style=""text-align: center;"">Indicate your response!</p>","","","","50"
"null","null","html-keyboard-response","133","2.0.0","409437","<div id=""dot-container"" style=""position: relative; width: 40vw; height: 70vh;""></div>","63","[""pick_up_M_A.txt"",""pick_up_M_B.txt""]","[""put down"",""pick up""]",""
"3714","98","html-slider-response","134","2.0.0","413152","<p style=""text-align: center;"">Indicate your response!</p>","","","","50"
"null","null","html-keyboard-response","135","2.0.0","416354","<div id=""dot-container"" style=""position: relative; width: 40vw; height: 70vh;""></div>","64","[""which_one_M_A.txt"",""which_one_M_B.txt""]","[""which one?"",""look at<br>the floor""]",""
"14867","94","html-slider-response","136","2.0.0","431222","<p style=""text-align: center;"">Indicate your response!</p>","","","","50"
"1202","{}","survey-html-form","137","2.0.0","432425","","","","",""
"null","null","html-keyboard-response","138","2.0.0","435627","<div id=""dot-container"" style=""position: relative; width: 40vw; height: 70vh;""></div>","65","[""this_tall_M_A.txt"",""this_tall_M_B.txt""]","[""come closer"",""this tall""]",""
"2089","94","html-slider-response","139","2.0.0","437718","<p style=""text-align: center;"">Indicate your response!</p>","","","","50"
"null","null","html-keyboard-response","140","2.0.0","440921","<div id=""dot-container"" style=""position: relative; width: 40vw; height: 70vh;""></div>","66","[""move_over_M_A.txt"",""move_over_M_B.txt""]","[""look at<br>the floor"",""move over""]",""
"2113","96","html-slider-response","141","2.0.0","443036","<p style=""text-align: center;"">Indicate your response!</p>","","","","50"
"null","null","html-keyboard-response","142","2.0.0","446237","<div id=""dot-container"" style=""position: relative; width: 40vw; height: 70vh;""></div>","67","[""which_one_M_A.txt"",""which_one_M_B.txt""]","[""pick up"",""which one?""]",""
"2366","96","html-slider-response","143","2.0.0","448604","<p style=""text-align: center;"">Indicate your response!</p>","","","","50"
"null","null","html-keyboard-response","144","2.0.0","451808","<div id=""dot-container"" style=""position: relative; width: 40vw; height: 70vh;""></div>","68","[""which_one_M_A.txt"",""which_one_M_B.txt""]","[""go over there"",""which one?""]",""
"2733","98","html-slider-response","145","2.0.0","454542","<p style=""text-align: center;"">Indicate your response!</p>","","","","50"
"null","null","html-keyboard-response","146","2.0.0","457744","<div id=""dot-container"" style=""position: relative; width: 40vw; height: 70vh;""></div>","69","[""move_it_M_A.txt"",""move_it_M_B.txt""]","[""move it"",""move over""]",""
"3031","18","html-slider-response","147","2.0.0","460777","<p style=""text-align: center;"">Indicate your response!</p>","","","","50"
"null","null","html-keyboard-response","148","2.0.0","463980","<div id=""dot-container"" style=""position: relative; width: 40vw; height: 70vh;""></div>","70","[""move_it_M_A.txt"",""move_it_M_B.txt""]","[""go over there"",""move it""]",""
"2577","96","html-slider-response","149","2.0.0","466558","<p style=""text-align: center;"">Indicate your response!</p>","","","","50"
"null","null","html-keyboard-response","150","2.0.0","469761","<div id=""dot-container"" style=""position: relative; width: 40vw; height: 70vh;""></div>","71","[""give_me_M_A.txt"",""give_me_M_B.txt""]","[""give me"",""help yourself""]",""
"33574","56","html-slider-response","151","2.0.0","503336","<p style=""text-align: center;"">Indicate your response!</p>","","","","50"
"69980","{}","survey-html-form","152","2.0.0","573317","","","","",""
"null","null","html-keyboard-response","153","2.0.0","576518","<div id=""dot-container"" style=""position: relative; width: 40vw; height: 70vh;""></div>","72","[""come_closer_M_A.txt"",""come_closer_M_B.txt""]","[""give me"",""come closer""]",""
"2083","94","html-slider-response","154","2.0.0","578603","<p style=""text-align: center;"">Indicate your response!</p>","","","","50"
"null","null","html-keyboard-response","155","2.0.0","581805","<div id=""dot-container"" style=""position: relative; width: 40vw; height: 70vh;""></div>","73","[""give_me_M_A.txt"",""give_me_M_B.txt""]","[""give me"",""which one?""]",""
"2430","2","html-slider-response","156","2.0.0","584238","<p style=""text-align: center;"">Indicate your response!</p>","","","","50"
"null","null","html-keyboard-response","157","2.0.0","587441","<div id=""dot-container"" style=""position: relative; width: 40vw; height: 70vh;""></div>","74","[""put_down_M_A.txt"",""put_down_M_B.txt""]","[""look at<br>the floor"",""put down""]",""
"2186","94","html-slider-response","158","2.0.0","589628","<p style=""text-align: center;"">Indicate your response!</p>","","","","50"
"null","null","html-keyboard-response","159","2.0.0","592831","<div id=""dot-container"" style=""position: relative; width: 40vw; height: 70vh;""></div>","75","[""I_am_happy_M_A.txt"",""I_am_happy_M_B.txt""]","[""sit down"",""I am happy""]",""
"2270","99","html-slider-response","160","2.0.0","595103","<p style=""text-align: center;"">Indicate your response!</p>","","","","50"
"null","null","html-keyboard-response","161","2.0.0","598306","<div id=""dot-container"" style=""position: relative; width: 40vw; height: 70vh;""></div>","76","[""move_it_M_A.txt"",""move_it_M_B.txt""]","[""look at<br>the ceiling"",""move it""]",""
"3533","96","html-slider-response","162","2.0.0","601841","<p style=""text-align: center;"">Indicate your response!</p>","","","","50"
"null","null","html-keyboard-response","163","2.0.0","605042","<div id=""dot-container"" style=""position: relative; width: 40vw; height: 70vh;""></div>","77","[""come_closer_M_A.txt"",""come_closer_M_B.txt""]","[""move over"",""come closer""]",""
"2701","96","html-slider-response","164","2.0.0","607744","<p style=""text-align: center;"">Indicate your response!</p>","","","","50"
"null","null","html-keyboard-response","165","2.0.0","610947","<div id=""dot-container"" style=""position: relative; width: 40vw; height: 70vh;""></div>","78","[""go_overthere_M_A.txt"",""go_overthere_M_B.txt""]","[""go over there"",""this tall""]",""
"2844","0","html-slider-response","166","2.0.0","613793","<p style=""text-align: center;"">Indicate your response!</p>","","","","50"
"1940","{}","survey-html-form","167","2.0.0","615735","","","","",""
"null","null","html-keyboard-response","168","2.0.0","618937","<div id=""dot-container"" style=""position: relative; width: 40vw; height: 70vh;""></div>","79","[""look_floor_M_A.txt"",""look_floor_M_B.txt""]","[""look at<br>the ceiling"",""look at<br>the floor""]",""
"2448","97","html-slider-response","169","2.0.0","621386","<p style=""text-align: center;"">Indicate your response!</p>","","","","50"
"null","null","html-keyboard-response","170","2.0.0","624589","<div id=""dot-container"" style=""position: relative; width: 40vw; height: 70vh;""></div>","80","[""I_am_angry_M_A.txt"",""I_am_angry_M_B.txt""]","[""no"",""I am angry""]",""
"1935","98","html-slider-response","171","2.0.0","626526","<p style=""text-align: center;"">Indicate your response!</p>","","","","50"
"null","null","html-keyboard-response","172","2.0.0","629727","<div id=""dot-container"" style=""position: relative; width: 40vw; height: 70vh;""></div>","81","[""imitate_me_M_A.txt"",""imitate_me_M_B.txt""]","[""imitate me"",""look at<br>the floor""]",""
"2763","1","html-slider-response","173","2.0.0","632492","<p style=""text-align: center;"">Indicate your response!</p>","","","","50"
"null","null","html-keyboard-response","174","2.0.0","635694","<div id=""dot-container"" style=""position: relative; width: 40vw; height: 70vh;""></div>","82","[""imitate_me_M_A.txt"",""imitate_me_M_B.txt""]","[""move over"",""imitate me""]",""
"2732","97","html-slider-response","175","2.0.0","638428","<p style=""text-align: center;"">Indicate your response!</p>","","","","50"
"null","null","html-keyboard-response","176","2.0.0","641630","<div id=""dot-container"" style=""position: relative; width: 40vw; height: 70vh;""></div>","83","[""move_it_M_A.txt"",""move_it_M_B.txt""]","[""move it"",""which one?""]",""
"3292","96","html-slider-response","177","2.0.0","644924","<p style=""text-align: center;"">Indicate your response!</p>","","","","50"
"null","null","html-keyboard-response","178","2.0.0","648126","<div id=""dot-container"" style=""position: relative; width: 40vw; height: 70vh;""></div>","84","[""go_overthere_M_A.txt"",""go_overthere_M_B.txt""]","[""go over there"",""look at<br>the floor""]",""
"3007","1","html-slider-response","179","2.0.0","651134","<p style=""text-align: center;"">Indicate your response!</p>","","","","50"
"null","null","html-keyboard-response","180","2.0.0","654337","<div id=""dot-container"" style=""position: relative; width: 40vw; height: 70vh;""></div>","85","[""imitate_me_M_A.txt"",""imitate_me_M_B.txt""]","[""pick up"",""imitate me""]",""
"2722","91","html-slider-response","181","2.0.0","657061","<p style=""text-align: center;"">Indicate your response!</p>","","","","50"
"1152","{}","survey-html-form","182","2.0.0","658215","","","","",""
"null","null","html-keyboard-response","183","2.0.0","661417","<div id=""dot-container"" style=""position: relative; width: 40vw; height: 70vh;""></div>","86","[""help_yourself_M_A.txt"",""help_yourself_M_B.txt""]","[""I am angry"",""help yourself""]",""
"2788","94","html-slider-response","184","2.0.0","664207","<p style=""text-align: center;"">Indicate your response!</p>","","","","50"
"null","null","html-keyboard-response","185","2.0.0","667409","<div id=""dot-container"" style=""position: relative; width: 40vw; height: 70vh;""></div>","87","[""this_tall_M_A.txt"",""this_tall_M_B.txt""]","[""give me"",""this tall""]",""
"2009","95","html-slider-response","186","2.0.0","669420","<p style=""text-align: center;"">Indicate your response!</p>","","","","50"
"null","null","html-keyboard-response","187","2.0.0","672622","<div id=""dot-container"" style=""position: relative; width: 40vw; height: 70vh;""></div>","88","[""I_am_happy_M_A.txt"",""I_am_happy_M_B.txt""]","[""move it"",""I am happy""]",""
"1902","97","html-slider-response","188","2.0.0","674526","<p style=""text-align: center;"">Indicate your response!</p>","","","","50"
"null","null","html-keyboard-response","189","2.0.0","677728","<div id=""dot-container"" style=""position: relative; width: 40vw; height: 70vh;""></div>","89","[""go_overthere_M_A.txt"",""go_overthere_M_B.txt""]","[""I am happy"",""go over there""]",""
"2278","97","html-slider-response","190","2.0.0","680008","<p style=""text-align: center;"">Indicate your response!</p>","","","","50"
"null","null","html-keyboard-response","191","2.0.0","683210","<div id=""dot-container"" style=""position: relative; width: 40vw; height: 70vh;""></div>","90","[""I_am_happy_M_A.txt"",""I_am_happy_M_B.txt""]","[""I am angry"",""I am happy""]",""
"2391","96","html-slider-response","192","2.0.0","685602","<p style=""text-align: center;"">Indicate your response!</p>","","","","50"
"null","null","html-keyboard-response","193","2.0.0","688804","<div id=""dot-container"" style=""position: relative; width: 40vw; height: 70vh;""></div>","91","[""I_am_happy_M_A.txt"",""I_am_happy_M_B.txt""]","[""I am happy"",""no""]",""
"2519","1","html-slider-response","194","2.0.0","691325","<p style=""text-align: center;"">Indicate your response!</p>","","","","50"
"null","null","html-keyboard-response","195","2.0.0","694528","<div id=""dot-container"" style=""position: relative; width: 40vw; height: 70vh;""></div>","92","[""imitate_me_M_A.txt"",""imitate_me_M_B.txt""]","[""I am angry"",""imitate me""]",""
"2618","97","html-slider-response","196","2.0.0","697147","<p style=""text-align: center;"">Indicate your response!</p>","","","","50"
"42325","{}","survey-html-form","197","2.0.0","739473","","","","",""
"null","null","html-keyboard-response","198","2.0.0","742675","<div id=""dot-container"" style=""position: relative; width: 40vw; height: 70vh;""></div>","93","[""look_ceiling_M_A.txt"",""look_ceiling_M_B.txt""]","[""look at<br>the ceiling"",""I am angry""]",""
"2829","1","html-slider-response","199","2.0.0","745506","<p style=""text-align: center;"">Indicate your response!</p>","","","","50"
"null","null","html-keyboard-response","200","2.0.0","748708","<div id=""dot-container"" style=""position: relative; width: 40vw; height: 70vh;""></div>","94","[""go_overthere_M_A.txt"",""go_overthere_M_B.txt""]","[""go over there"",""look at<br>the ceiling""]",""
"2513","4","html-slider-response","201","2.0.0","751222","<p style=""text-align: center;"">Indicate your response!</p>","","","","50"
"null","null","html-keyboard-response","202","2.0.0","754424","<div id=""dot-container"" style=""position: relative; width: 40vw; height: 70vh;""></div>","95","[""help_yourself_M_A.txt"",""help_yourself_M_B.txt""]","[""help yourself"",""look at<br>the floor""]",""
"2690","4","html-slider-response","203","2.0.0","757116","<p style=""text-align: center;"">Indicate your response!</p>","","","","50"
"null","null","html-keyboard-response","204","2.0.0","760317","<div id=""dot-container"" style=""position: relative; width: 40vw; height: 70vh;""></div>","96","[""sit_down_M_A.txt"",""sit_down_M_B.txt""]","[""sit down"",""no""]",""
"2212","2","html-slider-response","205","2.0.0","762531","<p style=""text-align: center;"">Indicate your response!</p>","","","","50"
"null","null","html-keyboard-response","206","2.0.0","765734","<div id=""dot-container"" style=""position: relative; width: 40vw; height: 70vh;""></div>","97","[""go_overthere_M_A.txt"",""go_overthere_M_B.txt""]","[""move it"",""go over there""]",""
"3389","97","html-slider-response","207","2.0.0","769124","<p style=""text-align: center;"">Indicate your response!</p>","","","","50"
"null","null","html-keyboard-response","208","2.0.0","772326","<div id=""dot-container"" style=""position: relative; width: 40vw; height: 70vh;""></div>","98","[""put_down_M_A.txt"",""put_down_M_B.txt""]","[""put down"",""this tall""]",""
"2365","10","html-slider-response","209","2.0.0","774693","<p style=""text-align: center;"">Indicate your response!</p>","","","","50"
"null","null","html-keyboard-response","210","2.0.0","777894","<div id=""dot-container"" style=""position: relative; width: 40vw; height: 70vh;""></div>","99","[""look_ceiling_M_A.txt"",""look_ceiling_M_B.txt""]","[""look at<br>the ceiling"",""go over there""]",""
"2302","2","html-slider-response","211","2.0.0","780198","<p style=""text-align: center;"">Indicate your response!</p>","","","","50"
"1129","{}","survey-html-form","212","2.0.0","781329","","","","",""
"null","null","html-keyboard-response","213","2.0.0","784531","<div id=""dot-container"" style=""position: relative; width: 40vw; height: 70vh;""></div>","100","[""put_down_M_A.txt"",""put_down_M_B.txt""]","[""look at<br>the ceiling"",""put down""]",""
"3366","92","html-slider-response","214","2.0.0","787898","<p style=""text-align: center;"">Indicate your response!</p>","","","","50"
"null","null","html-keyboard-response","215","2.0.0","791101","<div id=""dot-container"" style=""position: relative; width: 40vw; height: 70vh;""></div>","101","[""come_closer_M_A.txt"",""come_closer_M_B.txt""]","[""move it"",""come closer""]",""
"1653","94","html-slider-response","216","2.0.0","792755","<p style=""text-align: center;"">Indicate your response!</p>","","","","50"
"null","null","html-keyboard-response","217","2.0.0","795957","<div id=""dot-container"" style=""position: relative; width: 40vw; height: 70vh;""></div>","102","[""I_am_angry_M_A.txt"",""I_am_angry_M_B.txt""]","[""I am angry"",""look at<br>the ceiling""]",""
"2244","4","html-slider-response","218","2.0.0","798202","<p style=""text-align: center;"">Indicate your response!</p>","","","","50"
"null","null","html-keyboard-response","219","2.0.0","801405","<div id=""dot-container"" style=""position: relative; width: 40vw; height: 70vh;""></div>","103","[""pick_up_M_A.txt"",""pick_up_M_B.txt""]","[""imitate me"",""pick up""]",""
"2657","92","html-slider-response","220","2.0.0","804064","<p style=""text-align: center;"">Indicate your response!</p>","","","","50"
"null","null","html-keyboard-response","221","2.0.0","807266","<div id=""dot-container"" style=""position: relative; width: 40vw; height: 70vh;""></div>","104","[""help_yourself_M_A.txt"",""help_yourself_M_B.txt""]","[""pick up"",""help yourself""]",""
"2666","94","html-slider-response","222","2.0.0","809933","<p style=""text-align: center;"">Indicate your response!</p>","","","","50"
"null","null","html-keyboard-response","223","2.0.0","813135","<div id=""dot-container"" style=""position: relative; width: 40vw; height: 70vh;""></div>","105","[""pick_up_M_A.txt"",""pick_up_M_B.txt""]","[""come closer"",""pick up""]",""
"2164","94","html-slider-response","224","2.0.0","815300","<p style=""text-align: center;"">Indicate your response!</p>","","","","50"
"null","null","html-keyboard-response","225","2.0.0","818503","<div id=""dot-container"" style=""position: relative; width: 40vw; height: 70vh;""></div>","106","[""look_floor_M_A.txt"",""look_floor_M_B.txt""]","[""look at<br>the floor"",""I am angry""]",""
"2210","6","html-slider-response","226","2.0.0","820714","<p style=""text-align: center;"">Indicate your response!</p>","","","","50"
"1169","{}","survey-html-form","227","2.0.0","821885","","","","",""
"null","null","html-keyboard-response","228","2.0.0","825086","<div id=""dot-container"" style=""position: relative; width: 40vw; height: 70vh;""></div>","107","[""come_closer_M_A.txt"",""come_closer_M_B.txt""]","[""come closer"",""put down""]",""
"2552","84","html-slider-response","229","2.0.0","827640","<p style=""text-align: center;"">Indicate your response!</p>","","","","50"
"null","null","html-keyboard-response","230","2.0.0","830843","<div id=""dot-container"" style=""position: relative; width: 40vw; height: 70vh;""></div>","108","[""sit_down_M_A.txt"",""sit_down_M_B.txt""]","[""look at<br>the floor"",""sit down""]",""
"2763","90","html-slider-response","231","2.0.0","833608","<p style=""text-align: center;"">Indicate your response!</p>","","","","50"
"null","null","html-keyboard-response","232","2.0.0","836810","<div id=""dot-container"" style=""position: relative; width: 40vw; height: 70vh;""></div>","109","[""imitate_me_M_A.txt"",""imitate_me_M_B.txt""]","[""imitate me"",""no""]",""
"2602","6","html-slider-response","233","2.0.0","839414","<p style=""text-align: center;"">Indicate your response!</p>","","","","50"
"null","null","html-keyboard-response","234","2.0.0","842617","<div id=""dot-container"" style=""position: relative; width: 40vw; height: 70vh;""></div>","110","[""go_overthere_M_A.txt"",""go_overthere_M_B.txt""]","[""I am angry"",""go over there""]",""
"2478","89","html-slider-response","235","2.0.0","845096","<p style=""text-align: center;"">Indicate your response!</p>","","","","50"
"null","null","html-keyboard-response","236","2.0.0","848298","<div id=""dot-container"" style=""position: relative; width: 40vw; height: 70vh;""></div>","111","[""move_over_M_A.txt"",""move_over_M_B.txt""]","[""sit down"",""move over""]",""
"4341","90","html-slider-response","237","2.0.0","852641","<p style=""text-align: center;"">Indicate your response!</p>","","","","50"
"null","null","html-keyboard-response","238","2.0.0","855843","<div id=""dot-container"" style=""position: relative; width: 40vw; height: 70vh;""></div>","112","[""move_it_M_A.txt"",""move_it_M_B.txt""]","[""move it"",""no""]",""
"3405","8","html-slider-response","239","2.0.0","859250","<p style=""text-align: center;"">Indicate your response!</p>","","","","50"
"null","null","html-keyboard-response","240","2.0.0","862452","<div id=""dot-container"" style=""position: relative; width: 40vw; height: 70vh;""></div>","113","[""no_M_A.txt"",""no_M_B.txt""]","[""no"",""this tall""]",""
"3374","3","html-slider-response","241","2.0.0","865828","<p style=""text-align: center;"">Indicate your response!</p>","","","","50"
"1477","{}","survey-html-form","242","2.0.0","867306","","","","",""
"null","null","html-keyboard-response","243","2.0.0","870508","<div id=""dot-container"" style=""position: relative; width: 40vw; height: 70vh;""></div>","114","[""this_tall_M_A.txt"",""this_tall_M_B.txt""]","[""this tall"",""imitate me""]",""
"2260","3","html-slider-response","244","2.0.0","872769","<p style=""text-align: center;"">Indicate your response!</p>","","","","50"
"null","null","html-keyboard-response","245","2.0.0","875972","<div id=""dot-container"" style=""position: relative; width: 40vw; height: 70vh;""></div>","115","[""I_am_happy_M_A.txt"",""I_am_happy_M_B.txt""]","[""help yourself"",""I am happy""]",""
"2685","98","html-slider-response","246","2.0.0","878658","<p style=""text-align: center;"">Indicate your response!</p>","","","","50"
"null","null","html-keyboard-response","247","2.0.0","881861","<div id=""dot-container"" style=""position: relative; width: 40vw; height: 70vh;""></div>","116","[""look_ceiling_M_A.txt"",""look_ceiling_M_B.txt""]","[""look at<br>the ceiling"",""give me""]",""
"2642","3","html-slider-response","248","2.0.0","884504","<p style=""text-align: center;"">Indicate your response!</p>","","","","50"
"null","null","html-keyboard-response","249","2.0.0","887707","<div id=""dot-container"" style=""position: relative; width: 40vw; height: 70vh;""></div>","117","[""I_am_angry_M_A.txt"",""I_am_angry_M_B.txt""]","[""I am angry"",""this tall""]",""
"2292","4","html-slider-response","250","2.0.0","890000","<p style=""text-align: center;"">Indicate your response!</p>","","","","50"
"null","null","html-keyboard-response","251","2.0.0","893202","<div id=""dot-container"" style=""position: relative; width: 40vw; height: 70vh;""></div>","118","[""pick_up_M_A.txt"",""pick_up_M_B.txt""]","[""help yourself"",""pick up""]",""
"3259","94","html-slider-response","252","2.0.0","896463","<p style=""text-align: center;"">Indicate your response!</p>","","","","50"
"null","null","html-keyboard-response","253","2.0.0","899664","<div id=""dot-container"" style=""position: relative; width: 40vw; height: 70vh;""></div>","119","[""I_am_angry_M_A.txt"",""I_am_angry_M_B.txt""]","[""help yourself"",""I am angry""]",""
"2309","96","html-slider-response","254","2.0.0","901975","<p style=""text-align: center;"">Indicate your response!</p>","","","","50"
"null","null","html-keyboard-response","255","2.0.0","905176","<div id=""dot-container"" style=""position: relative; width: 40vw; height: 70vh;""></div>","120","[""no_M_A.txt"",""no_M_B.txt""]","[""look at<br>the ceiling"",""no""]",""
"2808","92","html-slider-response","256","2.0.0","907986","<p style=""text-align: center;"">Indicate your response!</p>","","","","50"
"249200","{}","survey-html-form","257","2.0.0","1157187","","","","",""
"null","null","html-keyboard-response","258","2.0.0","1160388","<div id=""dot-container"" style=""position: relative; width: 40vw; height: 70vh;""></div>","121","[""put_down_M_A.txt"",""put_down_M_B.txt""]","[""put down"",""no""]",""
"2587","4","html-slider-response","259","2.0.0","1162977","<p style=""text-align: center;"">Indicate your response!</p>","","","","50"
"null","null","html-keyboard-response","260","2.0.0","1166179","<div id=""dot-container"" style=""position: relative; width: 40vw; height: 70vh;""></div>","122","[""look_ceiling_M_A.txt"",""look_ceiling_M_B.txt""]","[""look at<br>the floor"",""look at<br>the ceiling""]",""
"3343","97","html-slider-response","261","2.0.0","1169524","<p style=""text-align: center;"">Indicate your response!</p>","","","","50"
"null","null","html-keyboard-response","262","2.0.0","1172727","<div id=""dot-container"" style=""position: relative; width: 40vw; height: 70vh;""></div>","123","[""sit_down_M_A.txt"",""sit_down_M_B.txt""]","[""I am happy"",""sit down""]",""
"2373","91","html-slider-response","263","2.0.0","1175102","<p style=""text-align: center;"">Indicate your response!</p>","","","","50"
"null","null","html-keyboard-response","264","2.0.0","1178303","<div id=""dot-container"" style=""position: relative; width: 40vw; height: 70vh;""></div>","124","[""sit_down_M_A.txt"",""sit_down_M_B.txt""]","[""put down"",""sit down""]",""
"1831","97","html-slider-response","265","2.0.0","1180136","<p style=""text-align: center;"">Indicate your response!</p>","","","","50"
"null","null","html-keyboard-response","266","2.0.0","1183338","<div id=""dot-container"" style=""position: relative; width: 40vw; height: 70vh;""></div>","125","[""I_am_angry_M_A.txt"",""I_am_angry_M_B.txt""]","[""I am angry"",""go over there""]",""
"2333","4","html-slider-response","267","2.0.0","1185673","<p style=""text-align: center;"">Indicate your response!</p>","","","","50"
"null","null","html-keyboard-response","268","2.0.0","1188876","<div id=""dot-container"" style=""position: relative; width: 40vw; height: 70vh;""></div>","126","[""put_down_M_A.txt"",""put_down_M_B.txt""]","[""put down"",""give me""]",""
"2567","3","html-slider-response","269","2.0.0","1191444","<p style=""text-align: center;"">Indicate your response!</p>","","","","50"
"null","null","html-keyboard-response","270","2.0.0","1194646","<div id=""dot-container"" style=""position: relative; width: 40vw; height: 70vh;""></div>","127","[""I_am_happy_M_A.txt"",""I_am_happy_M_B.txt""]","[""I am happy"",""put down""]",""
"1955","4","html-slider-response","271","2.0.0","1196603","<p style=""text-align: center;"">Indicate your response!</p>","","","","50"
"1161","{}","survey-html-form","272","2.0.0","1197765","","","","",""
"null","null","html-keyboard-response","273","2.0.0","1200967","<div id=""dot-container"" style=""position: relative; width: 40vw; height: 70vh;""></div>","128","[""sit_down_M_A.txt"",""sit_down_M_B.txt""]","[""sit down"",""help yourself""]",""
"2325","2","html-slider-response","274","2.0.0","1203294","<p style=""text-align: center;"">Indicate your response!</p>","","","","50"
"null","null","html-keyboard-response","275","2.0.0","1206495","<div id=""dot-container"" style=""position: relative; width: 40vw; height: 70vh;""></div>","129","[""go_overthere_M_A.txt"",""go_overthere_M_B.txt""]","[""go over there"",""sit down""]",""
"2528","2","html-slider-response","276","2.0.0","1209026","<p style=""text-align: center;"">Indicate your response!</p>","","","","50"
"null","null","html-keyboard-response","277","2.0.0","1212227","<div id=""dot-container"" style=""position: relative; width: 40vw; height: 70vh;""></div>","130","[""look_ceiling_M_A.txt"",""look_ceiling_M_B.txt""]","[""look at<br>the ceiling"",""put down""]",""
"2472","2","html-slider-response","278","2.0.0","1214701","<p style=""text-align: center;"">Indicate your response!</p>","","","","50"
"null","null","html-keyboard-response","279","2.0.0","1217903","<div id=""dot-container"" style=""position: relative; width: 40vw; height: 70vh;""></div>","131","[""look_ceiling_M_A.txt"",""look_ceiling_M_B.txt""]","[""look at<br>the ceiling"",""imitate me""]",""
"1733","2","html-slider-response","280","2.0.0","1219638","<p style=""text-align: center;"">Indicate your response!</p>","","","","50"
"null","null","html-keyboard-response","281","2.0.0","1222840","<div id=""dot-container"" style=""position: relative; width: 40vw; height: 70vh;""></div>","132","[""this_tall_M_A.txt"",""this_tall_M_B.txt""]","[""this tall"",""which one?""]",""
"2277","2","html-slider-response","282","2.0.0","1225119","<p style=""text-align: center;"">Indicate your response!</p>","","","","50"
"null","null","html-keyboard-response","283","2.0.0","1228322","<div id=""dot-container"" style=""position: relative; width: 40vw; height: 70vh;""></div>","133","[""move_over_M_A.txt"",""move_over_M_B.txt""]","[""go over there"",""move over""]",""
"4064","80","html-slider-response","284","2.0.0","1232392","<p style=""text-align: center;"">Indicate your response!</p>","","","","50"
"null","null","html-keyboard-response","285","2.0.0","1235597","<div id=""dot-container"" style=""position: relative; width: 40vw; height: 70vh;""></div>","134","[""move_it_M_A.txt"",""move_it_M_B.txt""]","[""give me"",""move it""]",""
"2838","85","html-slider-response","286","2.0.0","1238438","<p style=""text-align: center;"">Indicate your response!</p>","","","","50"
"1770","{}","survey-html-form","287","2.0.0","1240210","","","","",""
"null","null","html-keyboard-response","288","2.0.0","1243413","<div id=""dot-container"" style=""position: relative; width: 40vw; height: 70vh;""></div>","135","[""help_yourself_M_A.txt"",""help_yourself_M_B.txt""]","[""imitate me"",""help yourself""]",""
"2188","90","html-slider-response","289","2.0.0","1245604","<p style=""text-align: center;"">Indicate your response!</p>","","","","50"
"null","null","html-keyboard-response","290","2.0.0","1248808","<div id=""dot-container"" style=""position: relative; width: 40vw; height: 70vh;""></div>","136","[""put_down_M_A.txt"",""put_down_M_B.txt""]","[""imitate me"",""put down""]",""
"2553","87","html-slider-response","291","2.0.0","1251363","<p style=""text-align: center;"">Indicate your response!</p>","","","","50"
"null","null","html-keyboard-response","292","2.0.0","1254566","<div id=""dot-container"" style=""position: relative; width: 40vw; height: 70vh;""></div>","137","[""sit_down_M_A.txt"",""sit_down_M_B.txt""]","[""move over"",""sit down""]",""
"2576","82","html-slider-response","293","2.0.0","1257145","<p style=""text-align: center;"">Indicate your response!</p>","","","","50"
"null","null","html-keyboard-response","294","2.0.0","1260347","<div id=""dot-container"" style=""position: relative; width: 40vw; height: 70vh;""></div>","138","[""imitate_me_M_A.txt"",""imitate_me_M_B.txt""]","[""imitate me"",""come closer""]",""
"3048","7","html-slider-response","295","2.0.0","1263398","<p style=""text-align: center;"">Indicate your response!</p>","","","","50"
"null","null","html-keyboard-response","296","2.0.0","1266601","<div id=""dot-container"" style=""position: relative; width: 40vw; height: 70vh;""></div>","139","[""look_floor_M_A.txt"",""look_floor_M_B.txt""]","[""look at<br>the floor"",""move over""]",""
"3113","10","html-slider-response","297","2.0.0","1269715","<p style=""text-align: center;"">Indicate your response!</p>","","","","50"
"null","null","html-keyboard-response","298","2.0.0","1272918","<div id=""dot-container"" style=""position: relative; width: 40vw; height: 70vh;""></div>","140","[""pick_up_M_A.txt"",""pick_up_M_B.txt""]","[""look at<br>the ceiling"",""pick up""]",""
"2446","98","html-slider-response","299","2.0.0","1275366","<p style=""text-align: center;"">Indicate your response!</p>","","","","50"
"null","null","html-keyboard-response","300","2.0.0","1278569","<div id=""dot-container"" style=""position: relative; width: 40vw; height: 70vh;""></div>","141","[""imitate_me_M_A.txt"",""imitate_me_M_B.txt""]","[""put down"",""imitate me""]",""
"2279","87","html-slider-response","301","2.0.0","1280850","<p style=""text-align: center;"">Indicate your response!</p>","","","","50"
"1632","{}","survey-html-form","302","2.0.0","1282484","","","","",""
"null","null","html-keyboard-response","303","2.0.0","1285686","<div id=""dot-container"" style=""position: relative; width: 40vw; height: 70vh;""></div>","142","[""look_ceiling_M_A.txt"",""look_ceiling_M_B.txt""]","[""move it"",""look at<br>the ceiling""]",""
"2021","95","html-slider-response","304","2.0.0","1287709","<p style=""text-align: center;"">Indicate your response!</p>","","","","50"
"null","null","html-keyboard-response","305","2.0.0","1290912","<div id=""dot-container"" style=""position: relative; width: 40vw; height: 70vh;""></div>","143","[""look_floor_M_A.txt"",""look_floor_M_B.txt""]","[""look at<br>the floor"",""help yourself""]",""
"2073","8","html-slider-response","306","2.0.0","1292986","<p style=""text-align: center;"">Indicate your response!</p>","","","","50"
"null","null","html-keyboard-response","307","2.0.0","1296188","<div id=""dot-container"" style=""position: relative; width: 40vw; height: 70vh;""></div>","144","[""look_floor_M_A.txt"",""look_floor_M_B.txt""]","[""look at<br>the floor"",""pick up""]",""
"2553","8","html-slider-response","308","2.0.0","1298743","<p style=""text-align: center;"">Indicate your response!</p>","","","","50"
"null","null","html-keyboard-response","309","2.0.0","1301946","<div id=""dot-container"" style=""position: relative; width: 40vw; height: 70vh;""></div>","145","[""give_me_M_A.txt"",""give_me_M_B.txt""]","[""give me"",""put down""]",""
"2673","11","html-slider-response","310","2.0.0","1304621","<p style=""text-align: center;"">Indicate your response!</p>","","","","50"
"null","null","html-keyboard-response","311","2.0.0","1307825","<div id=""dot-container"" style=""position: relative; width: 40vw; height: 70vh;""></div>","146","[""look_ceiling_M_A.txt"",""look_ceiling_M_B.txt""]","[""look at<br>the ceiling"",""I am happy""]",""
"1982","6","html-slider-response","312","2.0.0","1309809","<p style=""text-align: center;"">Indicate your response!</p>","","","","50"
"null","null","html-keyboard-response","313","2.0.0","1313011","<div id=""dot-container"" style=""position: relative; width: 40vw; height: 70vh;""></div>","147","[""which_one_M_A.txt"",""which_one_M_B.txt""]","[""I am angry"",""which one?""]",""
"2098","91","html-slider-response","314","2.0.0","1315111","<p style=""text-align: center;"">Indicate your response!</p>","","","","50"
"null","null","html-keyboard-response","315","2.0.0","1318314","<div id=""dot-container"" style=""position: relative; width: 40vw; height: 70vh;""></div>","148","[""move_it_M_A.txt"",""move_it_M_B.txt""]","[""put down"",""move it""]",""
"2511","86","html-slider-response","316","2.0.0","1320826","<p style=""text-align: center;"">Indicate your response!</p>","","","","50"
"1104","{}","survey-html-form","317","2.0.0","1321932","","","","",""
"null","null","html-keyboard-response","318","2.0.0","1325134","<div id=""dot-container"" style=""position: relative; width: 40vw; height: 70vh;""></div>","149","[""look_floor_M_A.txt"",""look_floor_M_B.txt""]","[""look at<br>the floor"",""put down""]",""
"2682","9","html-slider-response","319","2.0.0","1327818","<p style=""text-align: center;"">Indicate your response!</p>","","","","50"
"null","null","html-keyboard-response","320","2.0.0","1331021","<div id=""dot-container"" style=""position: relative; width: 40vw; height: 70vh;""></div>","150","[""look_ceiling_M_A.txt"",""look_ceiling_M_B.txt""]","[""look at<br>the ceiling"",""come closer""]",""
"1983","4","html-slider-response","321","2.0.0","1333006","<p style=""text-align: center;"">Indicate your response!</p>","","","","50"
"null","null","html-keyboard-response","322","2.0.0","1336209","<div id=""dot-container"" style=""position: relative; width: 40vw; height: 70vh;""></div>","151","[""I_am_angry_M_A.txt"",""I_am_angry_M_B.txt""]","[""I am angry"",""put down""]",""
"2333","0","html-slider-response","323","2.0.0","1338544","<p style=""text-align: center;"">Indicate your response!</p>","","","","50"
"null","null","html-keyboard-response","324","2.0.0","1341746","<div id=""dot-container"" style=""position: relative; width: 40vw; height: 70vh;""></div>","152","[""look_floor_M_A.txt"",""look_floor_M_B.txt""]","[""come closer"",""look at<br>the floor""]",""
"2194","95","html-slider-response","325","2.0.0","1343942","<p style=""text-align: center;"">Indicate your response!</p>","","","","50"
"null","null","html-keyboard-response","326","2.0.0","1347144","<div id=""dot-container"" style=""position: relative; width: 40vw; height: 70vh;""></div>","153","[""sit_down_M_A.txt"",""sit_down_M_B.txt""]","[""sit down"",""I am angry""]",""
"1961","3","html-slider-response","327","2.0.0","1349107","<p style=""text-align: center;"">Indicate your response!</p>","","","","50"
"null","null","html-keyboard-response","328","2.0.0","1352309","<div id=""dot-container"" style=""position: relative; width: 40vw; height: 70vh;""></div>","154","[""pick_up_M_A.txt"",""pick_up_M_B.txt""]","[""this tall"",""pick up""]",""
"2398","88","html-slider-response","329","2.0.0","1354709","<p style=""text-align: center;"">Indicate your response!</p>","","","","50"
"null","null","html-keyboard-response","330","2.0.0","1357911","<div id=""dot-container"" style=""position: relative; width: 40vw; height: 70vh;""></div>","155","[""move_it_M_A.txt"",""move_it_M_B.txt""]","[""sit down"",""move it""]",""
"2163","85","html-slider-response","331","2.0.0","1360076","<p style=""text-align: center;"">Indicate your response!</p>","","","","50"
"1665","{}","survey-html-form","332","2.0.0","1361742","","","","",""
"null","null","html-keyboard-response","333","2.0.0","1364944","<div id=""dot-container"" style=""position: relative; width: 40vw; height: 70vh;""></div>","156","[""give_me_M_A.txt"",""give_me_M_B.txt""]","[""give me"",""sit down""]",""
"4038","5","html-slider-response","334","2.0.0","1368984","<p style=""text-align: center;"">Indicate your response!</p>","","","","50"
"null","null","html-keyboard-response","335","2.0.0","1372187","<div id=""dot-container"" style=""position: relative; width: 40vw; height: 70vh;""></div>","157","[""pick_up_M_A.txt"",""pick_up_M_B.txt""]","[""give me"",""pick up""]",""
"2802","94","html-slider-response","336","2.0.0","1374990","<p style=""text-align: center;"">Indicate your response!</p>","","","","50"
"null","null","html-keyboard-response","337","2.0.0","1378193","<div id=""dot-container"" style=""position: relative; width: 40vw; height: 70vh;""></div>","158","[""no_M_A.txt"",""no_M_B.txt""]","[""no"",""come closer""]",""
"2001","1","html-slider-response","338","2.0.0","1380196","<p style=""text-align: center;"">Indicate your response!</p>","","","","50"
"null","null","html-keyboard-response","339","2.0.0","1383399","<div id=""dot-container"" style=""position: relative; width: 40vw; height: 70vh;""></div>","159","[""move_over_M_A.txt"",""move_over_M_B.txt""]","[""move over"",""no""]",""
"2907","11","html-slider-response","340","2.0.0","1386308","<p style=""text-align: center;"">Indicate your response!</p>","","","","50"
"null","null","html-keyboard-response","341","2.0.0","1389510","<div id=""dot-container"" style=""position: relative; width: 40vw; height: 70vh;""></div>","160","[""pick_up_M_A.txt"",""pick_up_M_B.txt""]","[""I am happy"",""pick up""]",""
"2317","93","html-slider-response","342","2.0.0","1391828","<p style=""text-align: center;"">Indicate your response!</p>","","","","50"
"null","null","html-keyboard-response","343","2.0.0","1395031","<div id=""dot-container"" style=""position: relative; width: 40vw; height: 70vh;""></div>","161","[""put_down_M_A.txt"",""put_down_M_B.txt""]","[""sit down"",""put down""]",""
"3023","63","html-slider-response","344","2.0.0","1398057","<p style=""text-align: center;"">Indicate your response!</p>","","","","50"
"null","null","html-keyboard-response","345","2.0.0","1401259","<div id=""dot-container"" style=""position: relative; width: 40vw; height: 70vh;""></div>","162","[""I_am_happy_M_A.txt"",""I_am_happy_M_B.txt""]","[""I am happy"",""move over""]",""
"2608","8","html-slider-response","346","2.0.0","1403869","<p style=""text-align: center;"">Indicate your response!</p>","","","","50"
"1634","{}","survey-html-form","347","2.0.0","1405504","","","","",""
"null","null","html-keyboard-response","348","2.0.0","1408706","<div id=""dot-container"" style=""position: relative; width: 40vw; height: 70vh;""></div>","163","[""I_am_angry_M_A.txt"",""I_am_angry_M_B.txt""]","[""I am angry"",""come closer""]",""
"2129","4","html-slider-response","349","2.0.0","1410837","<p style=""text-align: center;"">Indicate your response!</p>","","","","50"
"null","null","html-keyboard-response","350","2.0.0","1414039","<div id=""dot-container"" style=""position: relative; width: 40vw; height: 70vh;""></div>","164","[""I_am_happy_M_A.txt"",""I_am_happy_M_B.txt""]","[""I am happy"",""imitate me""]",""
"2424","5","html-slider-response","351","2.0.0","1416464","<p style=""text-align: center;"">Indicate your response!</p>","","","","50"
"null","null","html-keyboard-response","352","2.0.0","1419667","<div id=""dot-container"" style=""position: relative; width: 40vw; height: 70vh;""></div>","165","[""pick_up_M_A.txt"",""pick_up_M_B.txt""]","[""pick up"",""move over""]",""
"2219","6","html-slider-response","353","2.0.0","1421888","<p style=""text-align: center;"">Indicate your response!</p>","","","","50"
"null","null","html-keyboard-response","354","2.0.0","1425090","<div id=""dot-container"" style=""position: relative; width: 40vw; height: 70vh;""></div>","166","[""give_me_M_A.txt"",""give_me_M_B.txt""]","[""this tall"",""give me""]",""
"2529","96","html-slider-response","355","2.0.0","1427621","<p style=""text-align: center;"">Indicate your response!</p>","","","","50"
"null","null","html-keyboard-response","356","2.0.0","1430823","<div id=""dot-container"" style=""position: relative; width: 40vw; height: 70vh;""></div>","167","[""give_me_M_A.txt"",""give_me_M_B.txt""]","[""give me"",""pick up""]",""
"2204","2","html-slider-response","357","2.0.0","1433028","<p style=""text-align: center;"">Indicate your response!</p>","","","","50"
"null","null","html-keyboard-response","358","2.0.0","1436230","<div id=""dot-container"" style=""position: relative; width: 40vw; height: 70vh;""></div>","168","[""I_am_angry_M_A.txt"",""I_am_angry_M_B.txt""]","[""I am angry"",""give me""]",""
"2082","0","html-slider-response","359","2.0.0","1438314","<p style=""text-align: center;"">Indicate your response!</p>","","","","50"
"null","null","html-keyboard-response","360","2.0.0","1441517","<div id=""dot-container"" style=""position: relative; width: 40vw; height: 70vh;""></div>","169","[""pick_up_M_A.txt"",""pick_up_M_B.txt""]","[""I am angry"",""pick up""]",""
"2673","98","html-slider-response","361","2.0.0","1444191","<p style=""text-align: center;"">Indicate your response!</p>","","","","50"
"1657","{}","survey-html-form","362","2.0.0","1445850","","","","",""
"null","null","html-keyboard-response","363","2.0.0","1449051","<div id=""dot-container"" style=""position: relative; width: 40vw; height: 70vh;""></div>","170","[""move_it_M_A.txt"",""move_it_M_B.txt""]","[""move it"",""this tall""]",""
"3041","17","html-slider-response","364","2.0.0","1452094","<p style=""text-align: center;"">Indicate your response!</p>","","","","50"
"null","null","html-keyboard-response","365","2.0.0","1455297","<div id=""dot-container"" style=""position: relative; width: 40vw; height: 70vh;""></div>","171","[""look_floor_M_A.txt"",""look_floor_M_B.txt""]","[""move it"",""look at<br>the floor""]",""
"2406","94","html-slider-response","366","2.0.0","1457704","<p style=""text-align: center;"">Indicate your response!</p>","","","","50"
"null","null","html-keyboard-response","367","2.0.0","1460907","<div id=""dot-container"" style=""position: relative; width: 40vw; height: 70vh;""></div>","172","[""I_am_angry_M_A.txt"",""I_am_angry_M_B.txt""]","[""I am angry"",""move over""]",""
"2185","9","html-slider-response","368","2.0.0","1463094","<p style=""text-align: center;"">Indicate your response!</p>","","","","50"
"null","null","html-keyboard-response","369","2.0.0","1466297","<div id=""dot-container"" style=""position: relative; width: 40vw; height: 70vh;""></div>","173","[""move_over_M_A.txt"",""move_over_M_B.txt""]","[""pick up"",""move over""]",""
"2495","90","html-slider-response","370","2.0.0","1468794","<p style=""text-align: center;"">Indicate your response!</p>","","","","50"
"null","null","html-keyboard-response","371","2.0.0","1471997","<div id=""dot-container"" style=""position: relative; width: 40vw; height: 70vh;""></div>","174","[""help_yourself_M_A.txt"",""help_yourself_M_B.txt""]","[""sit down"",""help yourself""]",""
"3933","85","html-slider-response","372","2.0.0","1475932","<p style=""text-align: center;"">Indicate your response!</p>","","","","50"
"null","null","html-keyboard-response","373","2.0.0","1479134","<div id=""dot-container"" style=""position: relative; width: 40vw; height: 70vh;""></div>","175","[""I_am_angry_M_A.txt"",""I_am_angry_M_B.txt""]","[""look at<br>the floor"",""I am angry""]",""
"2422","95","html-slider-response","374","2.0.0","1481558","<p style=""text-align: center;"">Indicate your response!</p>","","","","50"
"null","null","html-keyboard-response","375","2.0.0","1484759","<div id=""dot-container"" style=""position: relative; width: 40vw; height: 70vh;""></div>","176","[""look_ceiling_M_A.txt"",""look_ceiling_M_B.txt""]","[""no"",""look at<br>the ceiling""]",""
"1994","93","html-slider-response","376","2.0.0","1486755","<p style=""text-align: center;"">Indicate your response!</p>","","","","50"
"1023","{}","survey-html-form","377","2.0.0","1487779","","","","",""
"null","null","html-keyboard-response","378","2.0.0","1490982","<div id=""dot-container"" style=""position: relative; width: 40vw; height: 70vh;""></div>","177","[""go_overthere_M_A.txt"",""go_overthere_M_B.txt""]","[""put down"",""go over there""]",""
"2430","92","html-slider-response","379","2.0.0","1493413","<p style=""text-align: center;"">Indicate your response!</p>","","","","50"
"null","null","html-keyboard-response","380","2.0.0","1496614","<div id=""dot-container"" style=""position: relative; width: 40vw; height: 70vh;""></div>","178","[""this_tall_M_A.txt"",""this_tall_M_B.txt""]","[""this tall"",""I am angry""]",""
"2382","3","html-slider-response","381","2.0.0","1498998","<p style=""text-align: center;"">Indicate your response!</p>","","","","50"
"null","null","html-keyboard-response","382","2.0.0","1502200","<div id=""dot-container"" style=""position: relative; width: 40vw; height: 70vh;""></div>","179","[""come_closer_M_A.txt"",""come_closer_M_B.txt""]","[""no"",""come closer""]",""
"2235","92","html-slider-response","383","2.0.0","1504437","<p style=""text-align: center;"">Indicate your response!</p>","","","","50"
"null","null","html-keyboard-response","384","2.0.0","1507639","<div id=""dot-container"" style=""position: relative; width: 40vw; height: 70vh;""></div>","180","[""sit_down_M_A.txt"",""sit_down_M_B.txt""]","[""pick up"",""sit down""]",""
"1983","92","html-slider-response","385","2.0.0","1509624","<p style=""text-align: center;"">Indicate your response!</p>","","","","50"
"null","null","html-keyboard-response","386","2.0.0","1512827","<div id=""dot-container"" style=""position: relative; width: 40vw; height: 70vh;""></div>","181","[""sit_down_M_A.txt"",""sit_down_M_B.txt""]","[""give me"",""sit down""]",""
"1860","93","html-slider-response","387","2.0.0","1514689","<p style=""text-align: center;"">Indicate your response!</p>","","","","50"
"null","null","html-keyboard-response","388","2.0.0","1517891","<div id=""dot-container"" style=""position: relative; width: 40vw; height: 70vh;""></div>","182","[""imitate_me_M_A.txt"",""imitate_me_M_B.txt""]","[""imitate me"",""help yourself""]",""
"2385","1","html-slider-response","389","2.0.0","1520278","<p style=""text-align: center;"">Indicate your response!</p>","","","","50"
"null","null","html-keyboard-response","390","2.0.0","1523481","<div id=""dot-container"" style=""position: relative; width: 40vw; height: 70vh;""></div>","183","[""which_one_M_A.txt"",""which_one_M_B.txt""]","[""which one?"",""help yourself""]",""
"2121","5","html-slider-response","391","2.0.0","1525603","<p style=""text-align: center;"">Indicate your response!</p>","","","","50"
"4582","{}","survey-html-form","392","2.0.0","1530186","","","","",""
"null","null","html-keyboard-response","393","2.0.0","1533388","<div id=""dot-container"" style=""position: relative; width: 40vw; height: 70vh;""></div>","184","[""come_closer_M_A.txt"",""come_closer_M_B.txt""]","[""come closer"",""pick up""]",""
"2253","2","html-slider-response","394","2.0.0","1535643","<p style=""text-align: center;"">Indicate your response!</p>","","","","50"
"null","null","html-keyboard-response","395","2.0.0","1538845","<div id=""dot-container"" style=""position: relative; width: 40vw; height: 70vh;""></div>","185","[""which_one_M_A.txt"",""which_one_M_B.txt""]","[""which one?"",""give me""]",""
"2983","5","html-slider-response","396","2.0.0","1541830","<p style=""text-align: center;"">Indicate your response!</p>","","","","50"
"null","null","html-keyboard-response","397","2.0.0","1545032","<div id=""dot-container"" style=""position: relative; width: 40vw; height: 70vh;""></div>","186","[""which_one_M_A.txt"",""which_one_M_B.txt""]","[""which one?"",""put down""]",""
"3537","3","html-slider-response","398","2.0.0","1548571","<p style=""text-align: center;"">Indicate your response!</p>","","","","50"
"null","null","html-keyboard-response","399","2.0.0","1551773","<div id=""dot-container"" style=""position: relative; width: 40vw; height: 70vh;""></div>","187","[""sit_down_M_A.txt"",""sit_down_M_B.txt""]","[""come closer"",""sit down""]",""
"2632","93","html-slider-response","400","2.0.0","1554407","<p style=""text-align: center;"">Indicate your response!</p>","","","","50"
"null","null","html-keyboard-response","401","2.0.0","1557610","<div id=""dot-container"" style=""position: relative; width: 40vw; height: 70vh;""></div>","188","[""look_floor_M_A.txt"",""look_floor_M_B.txt""]","[""look at<br>the floor"",""give me""]",""
"3210","7","html-slider-response","402","2.0.0","1560822","<p style=""text-align: center;"">Indicate your response!</p>","","","","50"
"null","null","html-keyboard-response","403","2.0.0","1564024","<div id=""dot-container"" style=""position: relative; width: 40vw; height: 70vh;""></div>","189","[""come_closer_M_A.txt"",""come_closer_M_B.txt""]","[""come closer"",""help yourself""]",""
"2048","3","html-slider-response","404","2.0.0","1566075","<p style=""text-align: center;"">Indicate your response!</p>","","","","50"
"null","null","html-keyboard-response","405","2.0.0","1569276","<div id=""dot-container"" style=""position: relative; width: 40vw; height: 70vh;""></div>","190","[""no_M_A.txt"",""no_M_B.txt""]","[""put down"",""no""]",""
"2205","95","html-slider-response","406","2.0.0","1571483","<p style=""text-align: center;"">Indicate your response!</p>","","","","50"
"1461","{}","survey-html-form","407","2.0.0","1572945","","","","",""
"null","null","html-keyboard-response","408","2.0.0","1576147","<div id=""dot-container"" style=""position: relative; width: 40vw; height: 70vh;""></div>","191","[""imitate_me_M_A.txt"",""imitate_me_M_B.txt""]","[""go over there"",""imitate me""]",""
"3125","96","html-slider-response","409","2.0.0","1579274","<p style=""text-align: center;"">Indicate your response!</p>","","","","50"
"null","null","html-keyboard-response","410","2.0.0","1582477","<div id=""dot-container"" style=""position: relative; width: 40vw; height: 70vh;""></div>","192","[""no_M_A.txt"",""no_M_B.txt""]","[""no"",""help yourself""]",""
"2128","3","html-slider-response","411","2.0.0","1584608","<p style=""text-align: center;"">Indicate your response!</p>","","","","50"
"null","null","html-keyboard-response","412","2.0.0","1587809","<div id=""dot-container"" style=""position: relative; width: 40vw; height: 70vh;""></div>","193","[""sit_down_M_A.txt"",""sit_down_M_B.txt""]","[""go over there"",""sit down""]",""
"2040","94","html-slider-response","413","2.0.0","1589850","<p style=""text-align: center;"">Indicate your response!</p>","","","","50"
"null","null","html-keyboard-response","414","2.0.0","1593051","<div id=""dot-container"" style=""position: relative; width: 40vw; height: 70vh;""></div>","194","[""come_closer_M_A.txt"",""come_closer_M_B.txt""]","[""come closer"",""look at<br>the floor""]",""
"2818","6","html-slider-response","415","2.0.0","1595871","<p style=""text-align: center;"">Indicate your response!</p>","","","","50"
"null","null","html-keyboard-response","416","2.0.0","1599074","<div id=""dot-container"" style=""position: relative; width: 40vw; height: 70vh;""></div>","195","[""come_closer_M_A.txt"",""come_closer_M_B.txt""]","[""come closer"",""look at<br>the ceiling""]",""
"2229","2","html-slider-response","417","2.0.0","1601304","<p style=""text-align: center;"">Indicate your response!</p>","","","","50"
"null","null","html-keyboard-response","418","2.0.0","1604507","<div id=""dot-container"" style=""position: relative; width: 40vw; height: 70vh;""></div>","196","[""look_ceiling_M_A.txt"",""look_ceiling_M_B.txt""]","[""which one?"",""look at<br>the ceiling""]",""
"3015","96","html-slider-response","419","2.0.0","1607524","<p style=""text-align: center;"">Indicate your response!</p>","","","","50"
"null","null","html-keyboard-response","420","2.0.0","1610727","<div id=""dot-container"" style=""position: relative; width: 40vw; height: 70vh;""></div>","197","[""this_tall_M_A.txt"",""this_tall_M_B.txt""]","[""pick up"",""this tall""]",""
"2072","97","html-slider-response","421","2.0.0","1612800","<p style=""text-align: center;"">Indicate your response!</p>","","","","50"
"1063","{}","survey-html-form","422","2.0.0","1613865","","","","",""
"null","null","html-keyboard-response","423","2.0.0","1617067","<div id=""dot-container"" style=""position: relative; width: 40vw; height: 70vh;""></div>","198","[""move_over_M_A.txt"",""move_over_M_B.txt""]","[""move over"",""come closer""]",""
"2561","12","html-slider-response","424","2.0.0","1619630","<p style=""text-align: center;"">Indicate your response!</p>","","","","50"
"null","null","html-keyboard-response","425","2.0.0","1622832","<div id=""dot-container"" style=""position: relative; width: 40vw; height: 70vh;""></div>","199","[""put_down_M_A.txt"",""put_down_M_B.txt""]","[""come closer"",""put down""]",""
"2032","90","html-slider-response","426","2.0.0","1624866","<p style=""text-align: center;"">Indicate your response!</p>","","","","50"
"null","null","html-keyboard-response","427","2.0.0","1628068","<div id=""dot-container"" style=""position: relative; width: 40vw; height: 70vh;""></div>","200","[""I_am_angry_M_A.txt"",""I_am_angry_M_B.txt""]","[""I am angry"",""I am happy""]",""
"2609","3","html-slider-response","428","2.0.0","1630679","<p style=""text-align: center;"">Indicate your response!</p>","","","","50"
"null","null","html-keyboard-response","429","2.0.0","1633882","<div id=""dot-container"" style=""position: relative; width: 40vw; height: 70vh;""></div>","201","[""help_yourself_M_A.txt"",""help_yourself_M_B.txt""]","[""this tall"",""help yourself""]",""
"3063","90","html-slider-response","430","2.0.0","1636947","<p style=""text-align: center;"">Indicate your response!</p>","","","","50"
"null","null","html-keyboard-response","431","2.0.0","1640150","<div id=""dot-container"" style=""position: relative; width: 40vw; height: 70vh;""></div>","202","[""which_one_M_A.txt"",""which_one_M_B.txt""]","[""which one?"",""imitate me""]",""
"3083","6","html-slider-response","432","2.0.0","1643234","<p style=""text-align: center;"">Indicate your response!</p>","","","","50"
"null","null","html-keyboard-response","433","2.0.0","1646437","<div id=""dot-container"" style=""position: relative; width: 40vw; height: 70vh;""></div>","203","[""I_am_happy_M_A.txt"",""I_am_happy_M_B.txt""]","[""I am happy"",""go over there""]",""
"2172","2","html-slider-response","434","2.0.0","1648611","<p style=""text-align: center;"">Indicate your response!</p>","","","","50"
"null","null","html-keyboard-response","435","2.0.0","1651814","<div id=""dot-container"" style=""position: relative; width: 40vw; height: 70vh;""></div>","204","[""move_over_M_A.txt"",""move_over_M_B.txt""]","[""move over"",""this tall""]",""
"2024","7","html-slider-response","436","2.0.0","1653840","<p style=""text-align: center;"">Indicate your response!</p>","","","","50"
"1104","{}","survey-html-form","437","2.0.0","1654946","","","","",""
"null","null","html-keyboard-response","438","2.0.0","1658147","<div id=""dot-container"" style=""position: relative; width: 40vw; height: 70vh;""></div>","205","[""put_down_M_A.txt"",""put_down_M_B.txt""]","[""put down"",""help yourself""]",""
"3001","11","html-slider-response","439","2.0.0","1661149","<p style=""text-align: center;"">Indicate your response!</p>","","","","50"
"null","null","html-keyboard-response","440","2.0.0","1664352","<div id=""dot-container"" style=""position: relative; width: 40vw; height: 70vh;""></div>","206","[""no_M_A.txt"",""no_M_B.txt""]","[""sit down"",""no""]",""
"2617","95","html-slider-response","441","2.0.0","1666971","<p style=""text-align: center;"">Indicate your response!</p>","","","","50"
"null","null","html-keyboard-response","442","2.0.0","1670174","<div id=""dot-container"" style=""position: relative; width: 40vw; height: 70vh;""></div>","207","[""pick_up_M_A.txt"",""pick_up_M_B.txt""]","[""pick up"",""go over there""]",""
"2642","5","html-slider-response","443","2.0.0","1672817","<p style=""text-align: center;"">Indicate your response!</p>","","","","50"
"null","null","html-keyboard-response","444","2.0.0","1676020","<div id=""dot-container"" style=""position: relative; width: 40vw; height: 70vh;""></div>","208","[""help_yourself_M_A.txt"",""help_yourself_M_B.txt""]","[""put down"",""help yourself""]",""
"2439","4","html-slider-response","445","2.0.0","1678460","<p style=""text-align: center;"">Indicate your response!</p>","","","","50"
"null","null","html-keyboard-response","446","2.0.0","1681662","<div id=""dot-container"" style=""position: relative; width: 40vw; height: 70vh;""></div>","209","[""move_it_M_A.txt"",""move_it_M_B.txt""]","[""I am angry"",""move it""]",""
"2154","91","html-slider-response","447","2.0.0","1683818","<p style=""text-align: center;"">Indicate your response!</p>","","","","50"
"null","null","html-keyboard-response","448","2.0.0","1687019","<div id=""dot-container"" style=""position: relative; width: 40vw; height: 70vh;""></div>","210","[""help_yourself_M_A.txt"",""help_yourself_M_B.txt""]","[""look at<br>the ceiling"",""help yourself""]",""
"2333","86","html-slider-response","449","2.0.0","1689354","<p style=""text-align: center;"">Indicate your response!</p>","","","","50"
"null","null","html-keyboard-response","450","2.0.0","1692556","<div id=""dot-container"" style=""position: relative; width: 40vw; height: 70vh;""></div>","211","[""I_am_happy_M_A.txt"",""I_am_happy_M_B.txt""]","[""give me"",""I am happy""]",""
"1784","97","html-slider-response","451","2.0.0","1694342","<p style=""text-align: center;"">Indicate your response!</p>","","","","50"
"1014","{}","survey-html-form","452","2.0.0","1695358","","","","",""
"null","null","html-keyboard-response","453","2.0.0","1698559","<div id=""dot-container"" style=""position: relative; width: 40vw; height: 70vh;""></div>","212","[""look_ceiling_M_A.txt"",""look_ceiling_M_B.txt""]","[""look at<br>the ceiling"",""this tall""]",""
"3065","2","html-slider-response","454","2.0.0","1701627","<p style=""text-align: center;"">Indicate your response!</p>","","","","50"
"null","null","html-keyboard-response","455","2.0.0","1704829","<div id=""dot-container"" style=""position: relative; width: 40vw; height: 70vh;""></div>","213","[""I_am_happy_M_A.txt"",""I_am_happy_M_B.txt""]","[""look at<br>the ceiling"",""I am happy""]",""
"2428","95","html-slider-response","456","2.0.0","1707260","<p style=""text-align: center;"">Indicate your response!</p>","","","","50"
"null","null","html-keyboard-response","457","2.0.0","1710462","<div id=""dot-container"" style=""position: relative; width: 40vw; height: 70vh;""></div>","214","[""pick_up_M_A.txt"",""pick_up_M_B.txt""]","[""no"",""pick up""]",""
"2210","91","html-slider-response","458","2.0.0","1712674","<p style=""text-align: center;"">Indicate your response!</p>","","","","50"
"null","null","html-keyboard-response","459","2.0.0","1715876","<div id=""dot-container"" style=""position: relative; width: 40vw; height: 70vh;""></div>","215","[""go_overthere_M_A.txt"",""go_overthere_M_B.txt""]","[""help yourself"",""go over there""]",""
"2315","92","html-slider-response","460","2.0.0","1718193","<p style=""text-align: center;"">Indicate your response!</p>","","","","50"
"null","null","html-keyboard-response","461","2.0.0","1721394","<div id=""dot-container"" style=""position: relative; width: 40vw; height: 70vh;""></div>","216","[""I_am_angry_M_A.txt"",""I_am_angry_M_B.txt""]","[""I am angry"",""sit down""]",""
"2222","2","html-slider-response","462","2.0.0","1723617","<p style=""text-align: center;"">Indicate your response!</p>","","","","50"
"null","null","html-keyboard-response","463","2.0.0","1726819","<div id=""dot-container"" style=""position: relative; width: 40vw; height: 70vh;""></div>","217","[""no_M_A.txt"",""no_M_B.txt""]","[""give me"",""no""]",""
"1869","94","html-slider-response","464","2.0.0","1728690","<p style=""text-align: center;"">Indicate your response!</p>","","","","50"
"null","null","html-keyboard-response","465","2.0.0","1731892","<div id=""dot-container"" style=""position: relative; width: 40vw; height: 70vh;""></div>","218","[""I_am_happy_M_A.txt"",""I_am_happy_M_B.txt""]","[""I am happy"",""which one?""]",""
"2317","6","html-slider-response","466","2.0.0","1734211","<p style=""text-align: center;"">Indicate your response!</p>","","","","50"
"1266","{}","survey-html-form","467","2.0.0","1735479","","","","",""
"null","null","html-keyboard-response","468","2.0.0","1738681","<div id=""dot-container"" style=""position: relative; width: 40vw; height: 70vh;""></div>","219","[""this_tall_M_A.txt"",""this_tall_M_B.txt""]","[""this tall"",""look at<br>the ceiling""]",""
"2487","3","html-slider-response","469","2.0.0","1741170","<p style=""text-align: center;"">Indicate your response!</p>","","","","50"
"null","null","html-keyboard-response","470","2.0.0","1744373","<div id=""dot-container"" style=""position: relative; width: 40vw; height: 70vh;""></div>","220","[""I_am_happy_M_A.txt"",""I_am_happy_M_B.txt""]","[""I am happy"",""this tall""]",""
"3040","3","html-slider-response","471","2.0.0","1747415","<p style=""text-align: center;"">Indicate your response!</p>","","","","50"
"null","null","html-keyboard-response","472","2.0.0","1750618","<div id=""dot-container"" style=""position: relative; width: 40vw; height: 70vh;""></div>","221","[""no_M_A.txt"",""no_M_B.txt""]","[""I am happy"",""no""]",""
"3218","96","html-slider-response","473","2.0.0","1753838","<p style=""text-align: center;"">Indicate your response!</p>","","","","50"
"null","null","html-keyboard-response","474","2.0.0","1757040","<div id=""dot-container"" style=""position: relative; width: 40vw; height: 70vh;""></div>","222","[""move_over_M_A.txt"",""move_over_M_B.txt""]","[""I am happy"",""move over""]",""
"2634","86","html-slider-response","475","2.0.0","1759676","<p style=""text-align: center;"">Indicate your response!</p>","","","","50"
"null","null","html-keyboard-response","476","2.0.0","1762879","<div id=""dot-container"" style=""position: relative; width: 40vw; height: 70vh;""></div>","223","[""no_M_A.txt"",""no_M_B.txt""]","[""pick up"",""no""]",""
"2488","100","html-slider-response","477","2.0.0","1765369","<p style=""text-align: center;"">Indicate your response!</p>","","","","50"
"null","null","html-keyboard-response","478","2.0.0","1768572","<div id=""dot-container"" style=""position: relative; width: 40vw; height: 70vh;""></div>","224","[""give_me_M_A.txt"",""give_me_M_B.txt""]","[""give me"",""move it""]",""
"2363","11","html-slider-response","479","2.0.0","1770938","<p style=""text-align: center;"">Indicate your response!</p>","","","","50"
"null","null","html-keyboard-response","480","2.0.0","1774139","<div id=""dot-container"" style=""position: relative; width: 40vw; height: 70vh;""></div>","225","[""come_closer_M_A.txt"",""come_closer_M_B.txt""]","[""come closer"",""go over there""]",""
"2123","7","html-slider-response","481","2.0.0","1776264","<p style=""text-align: center;"">Indicate your response!</p>","","","","50"
"1520","{}","survey-html-form","482","2.0.0","1777785","","","","",""
"null","null","html-keyboard-response","483","2.0.0","1780987","<div id=""dot-container"" style=""position: relative; width: 40vw; height: 70vh;""></div>","226","[""which_one_M_A.txt"",""which_one_M_B.txt""]","[""which one?"",""I am happy""]",""
"1924","2","html-slider-response","484","2.0.0","1782913","<p style=""text-align: center;"">Indicate your response!</p>","","","","50"
"null","null","html-keyboard-response","485","2.0.0","1786116","<div id=""dot-container"" style=""position: relative; width: 40vw; height: 70vh;""></div>","227","[""give_me_M_A.txt"",""give_me_M_B.txt""]","[""give me"",""move over""]",""
"1927","2","html-slider-response","486","2.0.0","1788045","<p style=""text-align: center;"">Indicate your response!</p>","","","","50"
"null","null","html-keyboard-response","487","2.0.0","1791248","<div id=""dot-container"" style=""position: relative; width: 40vw; height: 70vh;""></div>","228","[""look_floor_M_A.txt"",""look_floor_M_B.txt""]","[""which one?"",""look at<br>the floor""]",""
"2926","95","html-slider-response","488","2.0.0","1794176","<p style=""text-align: center;"">Indicate your response!</p>","","","","50"
"null","null","html-keyboard-response","489","2.0.0","1797378","<div id=""dot-container"" style=""position: relative; width: 40vw; height: 70vh;""></div>","229","[""help_yourself_M_A.txt"",""help_yourself_M_B.txt""]","[""give me"",""help yourself""]",""
"3674","93","html-slider-response","490","2.0.0","1801055","<p style=""text-align: center;"">Indicate your response!</p>","","","","50"
"null","null","html-keyboard-response","491","2.0.0","1804257","<div id=""dot-container"" style=""position: relative; width: 40vw; height: 70vh;""></div>","230","[""come_closer_M_A.txt"",""come_closer_M_B.txt""]","[""come closer"",""this tall""]",""
"2194","1","html-slider-response","492","2.0.0","1806453","<p style=""text-align: center;"">Indicate your response!</p>","","","","50"
"null","null","html-keyboard-response","493","2.0.0","1809655","<div id=""dot-container"" style=""position: relative; width: 40vw; height: 70vh;""></div>","231","[""help_yourself_M_A.txt"",""help_yourself_M_B.txt""]","[""help yourself"",""no""]",""
"2477","2","html-slider-response","494","2.0.0","1812133","<p style=""text-align: center;"">Indicate your response!</p>","","","","50"
"null","null","html-keyboard-response","495","2.0.0","1815336","<div id=""dot-container"" style=""position: relative; width: 40vw; height: 70vh;""></div>","232","[""this_tall_M_A.txt"",""this_tall_M_B.txt""]","[""sit down"",""this tall""]",""
"2474","98","html-slider-response","496","2.0.0","1817812","<p style=""text-align: center;"">Indicate your response!</p>","","","","50"
"1056","{}","survey-html-form","497","2.0.0","1818869","","","","",""
"null","null","html-keyboard-response","498","2.0.0","1822071","<div id=""dot-container"" style=""position: relative; width: 40vw; height: 70vh;""></div>","233","[""go_overthere_M_A.txt"",""go_overthere_M_B.txt""]","[""go over there"",""imitate me""]",""
"2841","7","html-slider-response","499","2.0.0","1824913","<p style=""text-align: center;"">Indicate your response!</p>","","","","50"
"null","null","html-keyboard-response","500","2.0.0","1828115","<div id=""dot-container"" style=""position: relative; width: 40vw; height: 70vh;""></div>","234","[""look_floor_M_A.txt"",""look_floor_M_B.txt""]","[""look at<br>the floor"",""I am happy""]",""
"1960","2","html-slider-response","501","2.0.0","1830077","<p style=""text-align: center;"">Indicate your response!</p>","","","","50"
"null","null","html-keyboard-response","502","2.0.0","1833279","<div id=""dot-container"" style=""position: relative; width: 40vw; height: 70vh;""></div>","235","[""go_overthere_M_A.txt"",""go_overthere_M_B.txt""]","[""move over"",""go over there""]",""
"2286","95","html-slider-response","503","2.0.0","1835566","<p style=""text-align: center;"">Indicate your response!</p>","","","","50"
"null","null","html-keyboard-response","504","2.0.0","1838768","<div id=""dot-container"" style=""position: relative; width: 40vw; height: 70vh;""></div>","236","[""pick_up_M_A.txt"",""pick_up_M_B.txt""]","[""move it"",""pick up""]",""
"2327","99","html-slider-response","505","2.0.0","1841096","<p style=""text-align: center;"">Indicate your response!</p>","","","","50"
"null","null","html-keyboard-response","506","2.0.0","1844298","<div id=""dot-container"" style=""position: relative; width: 40vw; height: 70vh;""></div>","237","[""give_me_M_A.txt"",""give_me_M_B.txt""]","[""give me"",""look at<br>the floor""]",""
"2277","4","html-slider-response","507","2.0.0","1846577","<p style=""text-align: center;"">Indicate your response!</p>","","","","50"
"null","null","html-keyboard-response","508","2.0.0","1849780","<div id=""dot-container"" style=""position: relative; width: 40vw; height: 70vh;""></div>","238","[""go_overthere_M_A.txt"",""go_overthere_M_B.txt""]","[""pick up"",""go over there""]",""
"2057","95","html-slider-response","509","2.0.0","1851838","<p style=""text-align: center;"">Indicate your response!</p>","","","","50"
"null","null","html-keyboard-response","510","2.0.0","1855041","<div id=""dot-container"" style=""position: relative; width: 40vw; height: 70vh;""></div>","239","[""put_down_M_A.txt"",""put_down_M_B.txt""]","[""pick up"",""put down""]",""
"2332","4","html-slider-response","511","2.0.0","1857376","<p style=""text-align: center;"">Indicate your response!</p>","","","","50"
"1616","{}","survey-html-form","512","2.0.0","1858993","","","","",""
"null","null","html-keyboard-response","513","2.0.0","1862194","<div id=""dot-container"" style=""position: relative; width: 40vw; height: 70vh;""></div>","240","[""sit_down_M_A.txt"",""sit_down_M_B.txt""]","[""sit down"",""this tall""]",""
"2342","2","html-slider-response","514","2.0.0","1864538","<p style=""text-align: center;"">Indicate your response!</p>","","","","50"
"null","null","html-keyboard-response","515","2.0.0","1867741","<div id=""dot-container"" style=""position: relative; width: 40vw; height: 70vh;""></div>","241","[""give_me_M_A.txt"",""give_me_M_B.txt""]","[""give me"",""look at<br>the ceiling""]",""
"2091","1","html-slider-response","516","2.0.0","1869833","<p style=""text-align: center;"">Indicate your response!</p>","","","","50"
"null","null","html-keyboard-response","517","2.0.0","1873035","<div id=""dot-container"" style=""position: relative; width: 40vw; height: 70vh;""></div>","242","[""imitate_me_M_A.txt"",""imitate_me_M_B.txt""]","[""move it"",""imitate me""]",""
"2107","97","html-slider-response","518","2.0.0","1875144","<p style=""text-align: center;"">Indicate your response!</p>","","","","50"
"null","null","html-keyboard-response","519","2.0.0","1878346","<div id=""dot-container"" style=""position: relative; width: 40vw; height: 70vh;""></div>","243","[""move_it_M_A.txt"",""move_it_M_B.txt""]","[""pick up"",""move it""]",""
"3130","88","html-slider-response","520","2.0.0","1881478","<p style=""text-align: center;"">Indicate your response!</p>","","","","50"
"null","null","html-keyboard-response","521","2.0.0","1884680","<div id=""dot-container"" style=""position: relative; width: 40vw; height: 70vh;""></div>","244","[""imitate_me_M_A.txt"",""imitate_me_M_B.txt""]","[""imitate me"",""this tall""]",""
"2069","1","html-slider-response","522","2.0.0","1886751","<p style=""text-align: center;"">Indicate your response!</p>","","","","50"
"null","null","html-keyboard-response","523","2.0.0","1889953","<div id=""dot-container"" style=""position: relative; width: 40vw; height: 70vh;""></div>","245","[""help_yourself_M_A.txt"",""help_yourself_M_B.txt""]","[""go over there"",""help yourself""]",""
"2830","92","html-slider-response","524","2.0.0","1892784","<p style=""text-align: center;"">Indicate your response!</p>","","","","50"
"null","null","html-keyboard-response","525","2.0.0","1895988","<div id=""dot-container"" style=""position: relative; width: 40vw; height: 70vh;""></div>","246","[""pick_up_M_A.txt"",""pick_up_M_B.txt""]","[""which one?"",""pick up""]",""
"2480","89","html-slider-response","526","2.0.0","1898469","<p style=""text-align: center;"">Indicate your response!</p>","","","","50"
"1412","{}","survey-html-form","527","2.0.0","1899883","","","","",""
"null","null","html-keyboard-response","528","2.0.0","1903085","<div id=""dot-container"" style=""position: relative; width: 40vw; height: 70vh;""></div>","247","[""this_tall_M_A.txt"",""this_tall_M_B.txt""]","[""this tall"",""move over""]",""
"1977","1","html-slider-response","529","2.0.0","1905063","<p style=""text-align: center;"">Indicate your response!</p>","","","","50"
"null","null","html-keyboard-response","530","2.0.0","1908265","<div id=""dot-container"" style=""position: relative; width: 40vw; height: 70vh;""></div>","248","[""which_one_M_A.txt"",""which_one_M_B.txt""]","[""look at<br>the ceiling"",""which one?""]",""
"2147","96","html-slider-response","531","2.0.0","1910414","<p style=""text-align: center;"">Indicate your response!</p>","","","","50"
"null","null","html-keyboard-response","532","2.0.0","1913617","<div id=""dot-container"" style=""position: relative; width: 40vw; height: 70vh;""></div>","249","[""this_tall_M_A.txt"",""this_tall_M_B.txt""]","[""this tall"",""look at<br>the floor""]",""
"2142","1","html-slider-response","533","2.0.0","1915760","<p style=""text-align: center;"">Indicate your response!</p>","","","","50"
"null","null","html-keyboard-response","534","2.0.0","1918962","<div id=""dot-container"" style=""position: relative; width: 40vw; height: 70vh;""></div>","250","[""I_am_happy_M_A.txt"",""I_am_happy_M_B.txt""]","[""I am happy"",""come closer""]",""
"2064","1","html-slider-response","535","2.0.0","1921028","<p style=""text-align: center;"">Indicate your response!</p>","","","","50"
"null","null","html-keyboard-response","536","2.0.0","1924231","<div id=""dot-container"" style=""position: relative; width: 40vw; height: 70vh;""></div>","251","[""look_ceiling_M_A.txt"",""look_ceiling_M_B.txt""]","[""help yourself"",""look at<br>the ceiling""]",""
"2578","99","html-slider-response","537","2.0.0","1926811","<p style=""text-align: center;"">Indicate your response!</p>","","","","50"
"null","null","html-keyboard-response","538","2.0.0","1930013","<div id=""dot-container"" style=""position: relative; width: 40vw; height: 70vh;""></div>","252","[""pick_up_M_A.txt"",""pick_up_M_B.txt""]","[""sit down"",""pick up""]",""
"3462","99","html-slider-response","539","2.0.0","1933476","<p style=""text-align: center;"">Indicate your response!</p>","","","","50"
"null","null","html-keyboard-response","540","2.0.0","1936679","<div id=""dot-container"" style=""position: relative; width: 40vw; height: 70vh;""></div>","253","[""look_floor_M_A.txt"",""look_floor_M_B.txt""]","[""look at<br>the floor"",""this tall""]",""
"2171","2","html-slider-response","541","2.0.0","1938852","<p style=""text-align: center;"">Indicate your response!</p>","","","","50"
"14925","{}","survey-html-form","542","2.0.0","1953778","","","","",""
"null","null","html-keyboard-response","543","2.0.0","1956980","<div id=""dot-container"" style=""position: relative; width: 40vw; height: 70vh;""></div>","254","[""put_down_M_A.txt"",""put_down_M_B.txt""]","[""put down"",""which one?""]",""
"4496","2","html-slider-response","544","2.0.0","1961478","<p style=""text-align: center;"">Indicate your response!</p>","","","","50"
